File: ELECTROCHEM_DATA/17.02.2022 16.12.2021 ПК7031 BF4 1e-4 M TBABF4 0,1 M MeCN 1 mm anode 0,8 V/CA
Corrected time (s)	WE(1).Current (A)	Time (s)	WE(1).Potential (V)	Index
0	0.000126251	15.7987	0.799255	1
10	9.48792e-05	25.7987	0.799561	2
20	8.37097e-05	35.7987	0.799866	3
30	7.87659e-05	45.7987	0.799255	4
40	7.58362e-05	55.7987	0.799255	5
50	7.52563e-05	65.7987	0.799255	6
60	0.000686035	75.7987	0.799561	7
70	0.000625305	85.7987	0.799561	8
80	0.000689697	95.7987	0.799561	9
90	0.000653687	105.799	0.799866	10
100	0.000636902	115.799	0.799561	11
110	0.000626831	125.799	0.798645	12
120	0.000577087	135.799	0.799866	13
130	0.000513306	145.799	0.799255	14
140	0.000561523	155.799	0.800171	15
150	0.000499573	165.799	0.799866	16
160	0.00057251	175.799	0.799866	17
170	0.000501709	185.799	0.799255	18
180	0.000532227	195.799	0.799561	19
190	0.000439911	205.799	0.799866	20
200	0.000482269	215.799	0.799866	21
210	0.000415955	225.799	0.800171	22
220	0.000486359	235.799	0.799561	23
230	0.000454193	245.799	0.800171	24
240	0.00040921	255.799	0.799255	25
250	0.000378815	265.799	0.799866	26
260	0.00038205	275.799	0.799255	27
270	0.00042691	285.799	0.799255	28
280	0.000370941	295.799	0.79895	29
290	0.00037674	305.799	0.799561	30
300	0.000395508	315.799	0.799561	31
310	0.000338531	325.799	0.799866	32
320	0.000416809	335.799	0.79834	33
330	0.000341339	345.799	0.799561	34
340	0.000350159	355.799	0.799866	35
350	0.000322571	365.799	0.799561	36
360	0.000298737	375.799	0.799866	37
370	0.000340149	385.799	0.799561	38
380	0.000308838	395.799	0.799561	39
390	0.000291931	405.799	0.799561	40
400	0.000273712	415.799	0.799866	41
410	0.00028833	425.799	0.799866	42
420	0.000267883	435.799	0.799561	43
430	0.000261841	445.799	0.799561	44
440	0.000249146	455.799	0.799866	45
450	0.000275848	465.799	0.800476	46
460	0.000243958	475.799	0.799561	47
470	0.000263977	485.799	0.799561	48
480	0.000243774	495.799	0.799561	49
490	0.00023233	505.799	0.799866	50
500	0.000227173	515.799	0.799561	51
510	0.000253082	525.799	0.799866	52
520	0.000213379	535.799	0.799561	53
530	0.000220032	545.799	0.800476	54
540	0.000228424	555.799	0.799561	55
550	0.000212372	565.799	0.799561	56
560	9.82361e-05	575.799	0.799561	57
570	3.80341e-05	585.799	0.799866	58
580	2.89825e-05	595.799	0.799561	59
590	2.56378e-05	605.799	0.800171	60
600	2.47833e-05	615.799	0.799561	61
610	2.5177e-05	625.799	0.799561	62
620	2.3764e-05	635.799	0.799561	63
630	2.31201e-05	645.799	0.800476	64
640	2.29187e-05	655.799	0.799561	65
650	2.23053e-05	665.799	0.799561	66
660	2.29736e-05	675.799	0.799561	67
670	2.29248e-05	685.799	0.799561	68
680	2.2467e-05	695.799	0.799561	69
690	2.22534e-05	705.799	0.799866	70
700	2.24731e-05	715.799	0.799866	71
710	2.33246e-05	725.799	0.79895	72
720	2.40356e-05	735.799	0.79895	73
730	2.34924e-05	745.799	0.799255	74
740	2.34283e-05	755.799	0.799866	75
750	2.3407e-05	765.799	0.799561	76
760	2.40936e-05	775.799	0.799561	77
770	2.41272e-05	785.799	0.800171	78
780	2.35962e-05	795.799	0.799561	79
790	2.35931e-05	805.799	0.799561	80
800	2.28363e-05	815.799	0.799255	81
810	2.28485e-05	825.799	0.799255	82
820	2.16675e-05	835.799	0.799255	83
830	2.18445e-05	845.799	0.799866	84
840	2.20428e-05	855.799	0.800476	85
850	2.22839e-05	865.799	0.799866	86
860	2.20642e-05	875.799	0.799255	87
870	2.20551e-05	885.799	0.799866	88
880	2.25769e-05	895.799	0.799866	89
890	2.19086e-05	905.799	0.799866	90
900	2.2995e-05	915.799	0.799561	91
910	2.33978e-05	925.799	0.799561	92
920	2.31964e-05	935.799	0.799866	93
930	2.23816e-05	945.799	0.799561	94
940	2.25098e-05	955.799	0.799866	95
950	2.3053e-05	965.799	0.799866	96
960	2.25128e-05	975.799	0.799561	97
970	2.32117e-05	985.799	0.799561	98
980	2.38251e-05	995.799	0.799255	99
990	2.2525e-05	1005.8	0.799561	100
1000	2.27142e-05	1015.8	0.799255	101
1010	2.23694e-05	1025.8	0.799561	102
1020	2.23175e-05	1035.8	0.799255	103
1030	2.30469e-05	1045.8	0.799866	104
1040	2.20795e-05	1055.8	0.799561	105
1050	2.14142e-05	1065.8	0.799561	106
1060	2.2113e-05	1075.8	0.800171	107
1070	2.14691e-05	1085.8	0.799561	108
1080	2.1994e-05	1095.8	0.799561	109
1090	2.08282e-05	1105.8	0.799866	110
1100	2.16583e-05	1115.8	0.799866	111
1110	2.15729e-05	1125.8	0.799866	112
1120	2.08435e-05	1135.8	0.799866	113
1130	2.19025e-05	1145.8	0.799561	114
1140	2.15759e-05	1155.8	0.799561	115
1150	2.10114e-05	1165.8	0.79895	116
1160	0.000191162	1175.8	0.799255	117
1170	0.00022641	1185.8	0.79895	118
1180	0.00019339	1195.8	0.799561	119
1190	0.000185425	1205.8	0.79895	120
1200	0.000188171	1215.8	0.799561	121
1210	0.000178986	1225.8	0.800171	122
1220	0.000157898	1235.8	0.800171	123
1230	0.000193115	1245.8	0.79895	124
1240	0.000194885	1255.8	0.799255	125
1250	0.000170654	1265.8	0.79895	126
1260	0.000175934	1275.8	0.799255	127
1270	0.000165497	1285.8	0.799866	128
1280	0.000155365	1295.8	0.800171	129
1290	0.000162933	1305.8	0.799561	130
1300	0.000151947	1315.8	0.799561	131
1310	0.000152344	1325.8	0.799255	132
1320	0.000141632	1335.8	0.799866	133
1330	0.00016153	1345.8	0.799255	134
1340	0.000141327	1355.8	0.799255	135
1350	0.000141052	1365.8	0.799866	136
1360	0.000145508	1375.8	0.799255	137
1370	0.000132294	1385.8	0.799561	138
1380	0.000152802	1395.8	0.799255	139
1390	0.000143707	1405.8	0.799255	140
1400	0.000129395	1415.8	0.800171	141
1410	0.00012851	1425.8	0.799866	142
1420	0.000129944	1435.8	0.799561	143
1430	0.000121613	1445.8	0.799255	144
1440	0.000126099	1455.8	0.799866	145
1450	0.000134796	1465.8	0.799866	146
1460	0.000113312	1475.8	0.799255	147
1470	0.000114685	1485.8	0.799561	148
1480	0.000120758	1495.8	0.799866	149
1490	0.000115112	1505.8	0.799561	150
1500	0.000130798	1515.8	0.799866	151
1510	0.00011441	1525.8	0.799866	152
1520	0.0001015625	1535.8	0.799866	153
1530	0.000106476	1545.8	0.799561	154
1540	0.000112152	1555.8	0.799255	155
1550	9.82971e-05	1565.8	0.799561	156
1560	0.000100769	1575.8	0.799255	157
1570	9.85413e-05	1585.8	0.799561	158
1580	9.86938e-05	1595.8	0.799255	159
1590	9.54895e-05	1605.8	0.799561	160
1600	9.77783e-05	1615.8	0.799255	161
1610	0.000111633	1625.8	0.799561	162
1620	9.42078e-05	1635.8	0.799561	163
1630	5.5603e-05	1645.8	0.799561	164
1640	1.83929e-05	1655.8	0.799866	165
1650	1.37726e-05	1665.8	0.799561	166
1660	1.21216e-05	1675.8	0.800171	167
1670	1.21735e-05	1685.8	0.799561	168
1680	1.21765e-05	1695.8	0.79895	169
1690	1.21185e-05	1705.8	0.799561	170
1700	1.20392e-05	1715.8	0.799561	171
1710	1.20056e-05	1725.8	0.800171	172
1720	1.20514e-05	1735.8	0.799866	173
1730	9.4635e-05	1745.8	0.799561	174
1740	0.000103302	1755.8	0.799561	175
1750	0.000102264	1765.8	0.799866	176
1760	9.40552e-05	1775.8	0.799255	177
1770	0.000100311	1785.8	0.799561	178
1780	8.984375E-05	1795.8	0.800171	179
1790	9.552e-05	1805.8	0.799866	180
1800	8.40759e-05	1815.8	0.799866	181
1810	9.74731e-05	1825.8	0.799866	182
1820	8.70056e-05	1835.8	0.800171	183
1830	9.15833e-05	1845.8	0.799866	184
1840	8.1604e-05	1855.8	0.799561	185
1850	8.7677e-05	1865.8	0.799255	186
1860	8.1665e-05	1875.8	0.800171	187
1870	8.5083e-05	1885.8	0.799255	188
1880	8.66394e-05	1895.8	0.799866	189
1890	8.89893e-05	1905.8	0.799866	190
1900	8.92639e-05	1915.8	0.799866	191
1910	8.37708e-05	1925.8	0.799255	192
1920	7.49207e-05	1935.8	0.799255	193
1930	7.38525e-05	1945.8	0.799255	194
1940	7.44629e-05	1955.8	0.799561	195
1950	7.65076e-05	1965.8	0.799561	196
1960	8.01392e-05	1975.8	0.799561	197
1970	7.52563e-05	1985.8	0.799561	198
1980	7.53174e-05	1995.8	0.799866	199
1990	8.11462e-05	2005.8	0.799561	200
2000	8.04443e-05	2015.8	0.799561	201
2010	7.18689e-05	2025.8	0.799866	202
2020	6.96716e-05	2035.8	0.799255	203
2030	8.00171e-05	2045.8	0.799866	204
2040	7.74536e-05	2055.8	0.799561	205
2050	6.48804e-05	2065.8	0.79895	206
2060	6.61011e-05	2075.8	0.799866	207
2070	1.61835e-05	2085.8	0.799255	208
2080	1.12732e-05	2095.8	0.799866	209
2090	9.04541e-06	2105.8	0.799561	210
2100	8.52661e-06	2115.8	0.799866	211
2110	8.69141e-06	2125.8	0.799561	212
2120	9.29565e-06	2135.8	0.799561	213
2130	9.59473e-06	2145.8	0.799866	214
2140	9.04846e-06	2155.8	0.799866	215
2150	9.41223e-05	2165.8	0.799561	216
2160	6.86035e-05	2175.8	0.799561	217
2170	6.81458e-05	2185.8	0.799561	218
2180	8.31299e-05	2195.8	0.799866	219
2190	7.50732e-05	2205.8	0.799561	220
2200	7.65076e-05	2215.8	0.799255	221
2210	7.15637e-05	2225.8	0.79895	222
2220	8.18481e-05	2235.8	0.799255	223
2230	7.49512e-05	2245.8	0.799255	224
2240	6.91223e-05	2255.8	0.799255	225
2250	7.37e-05	2265.8	0.799561	226
2260	7.68127e-05	2275.8	0.799561	227
2270	6.70471e-05	2285.8	0.800171	228
2280	7.18689e-05	2295.8	0.799866	229
2290	7.04956e-05	2305.8	0.799866	230
2300	6.43921e-05	2315.8	0.799866	231
2310	7.93457e-05	2325.8	0.799561	232
2320	6.54297e-05	2335.8	0.799561	233
2330	6.83899e-05	2345.8	0.799561	234
2340	6.91528e-05	2355.8	0.799866	235
2350	6.8573e-05	2365.8	0.799255	236
2360	6.5918e-05	2375.8	0.799255	237
2370	6.46057e-05	2385.8	0.799255	238
2380	6.00891e-05	2395.8	0.799866	239
2390	6.01501e-05	2405.8	0.799255	240
2400	6.17371e-05	2415.8	0.799561	241
2410	6.14319e-05	2425.8	0.799255	242
2420	5.76782e-05	2435.8	0.799866	243
2430	6.71387e-05	2445.8	0.799561	244
2440	5.57556e-05	2455.8	0.799561	245
2450	5.75562e-05	2465.8	0.799255	246
2460	6.04553e-05	2475.8	0.799561	247
2470	6.36292e-05	2485.8	0.799255	248
2480	6.05774e-05	2495.8	0.799255	249
2490	6.3324e-05	2505.8	0.799561	250
2500	6.00891e-05	2515.8	0.799561	251
2510	5.33142e-05	2525.8	0.799866	252
2520	1.13312e-05	2535.8	0.799866	253
2530	8.64868e-06	2545.8	0.800171	254
2540	6.31409e-06	2555.8	0.799561	255
2550	7.19604e-06	2565.8	0.799866	256
2560	5.29785e-05	2575.8	0.799561	257
2570	5.69458e-05	2585.8	0.799255	258
2580	5.24597e-05	2595.8	0.799561	259
2590	5.31921e-05	2605.8	0.799561	260
2600	5.29175e-05	2615.8	0.799561	261
2610	5.29175e-05	2625.8	0.799866	262
2620	5.05981e-05	2635.8	0.799561	263
2630	5.13916e-05	2645.8	0.799866	264
2640	5.87463e-05	2655.8	0.799561	265
2650	5.25513e-05	2665.8	0.799255	266
2660	6.31409e-05	2675.8	0.799255	267
2670	1.79779e-05	2685.8	0.800476	268
2680	9.21021e-06	2695.8	0.799561	269
2690	5.30701e-05	2705.8	0.79895	270
2700	5.84106e-05	2715.8	0.799866	271
2710	5.42297e-05	2725.8	0.799866	272
2720	5.06592e-05	2735.8	0.799561	273
2730	4.75403e-05	2745.8	0.799255	274
2740	4.77386e-05	2755.8	0.799561	275
2750	5.07507e-05	2765.8	0.799561	276
2760	5.06287e-05	2775.8	0.799866	277
2770	4.96216e-05	2785.8	0.799866	278
2780	5.10559e-05	2795.8	0.799561	279
2790	3.26721e-05	2805.8	0.799866	280
2800	4.93408e-05	2815.8	0.79895	281
2810	4.92249e-05	2825.8	0.799866	282
2820	4.45892e-05	2835.8	0.799866	283
2830	5.84412e-05	2845.8	0.79895	284
2840	4.6347e-05	2855.8	0.799561	285
2850	4.29596e-05	2865.8	0.799561	286
2860	5.29785e-05	2875.8	0.799561	287
2870	4.49738e-05	2885.8	0.799561	288
2880	4.58008e-05	2895.8	0.799561	289
2890	4.09546e-05	2905.8	0.799866	290
2900	4.38477e-05	2915.8	0.799561	291
2910	4.89197e-05	2925.8	0.799561	292
2920	1.07391e-05	2935.8	0.799561	293
2930	6.2439e-06	2945.8	0.799561	294
2940	6.62537e-06	2955.8	0.799561	295
2950	4.58984e-06	2965.8	0.799561	296
2960	5.45349e-06	2975.8	0.799866	297
2970	6.1615e-06	2985.8	0.799255	298
2980	5.85297e-05	2995.8	0.79895	299
2990	5.55115e-05	3005.8	0.799255	300
3000	4.8877e-05	3015.8	0.799866	301
3010	4.45282e-05	3025.8	0.799561	302
3020	4.65363e-05	3035.8	0.799561	303
3030	4.73938e-05	3045.8	0.799561	304
3040	4.8938e-05	3055.8	0.799866	305
3050	4.94171e-05	3065.8	0.799561	306
3060	4.87854e-05	3075.8	0.799255	307
3070	4.51599e-05	3085.8	0.799255	308
3080	4.7467e-05	3095.8	0.799561	309
3090	3.75671e-05	3105.8	0.799255	310
3100	1.0498e-05	3115.8	0.799561	311
3110	8.14209e-06	3125.8	0.79895	312
3120	6.43311e-06	3135.8	0.799255	313
3130	6.06384e-06	3145.8	0.799561	314
3140	6.98242e-06	3155.8	0.799866	315
3150	7.0282e-06	3165.8	0.799255	316
3160	6.27747e-06	3175.8	0.799866	317
3170	8.37708e-06	3185.8	0.799866	318
3180	7.2052e-06	3195.8	0.799866	319
3190	6.68945e-06	3205.8	0.799866	320
3200	7.48291e-06	3215.8	0.799255	321
3210	5.60791e-05	3225.8	0.799866	322
3220	4.67651e-05	3235.8	0.799866	323
3230	4.39301e-05	3245.8	0.799866	324
3240	4.51508e-05	3255.8	0.799866	325
3250	4.51141e-05	3265.8	0.799561	326
3260	4.37805e-05	3275.8	0.799866	327
3270	4.99268e-05	3285.8	0.79895	328
3280	4.43146e-05	3295.8	0.799866	329
3290	4.53674e-05	3305.8	0.799866	330
3300	4.39697e-05	3315.8	0.799866	331
3310	5.48401e-05	3325.8	0.800171	332
3320	4.88281e-05	3335.8	0.799255	333
3330	4.09668e-05	3345.8	0.79895	334
3340	4.13788e-05	3355.8	0.799866	335
3350	4.14154e-05	3365.8	0.799561	336
3360	4.43695e-05	3375.8	0.799561	337
3370	4.11591e-05	3385.8	0.799866	338
3380	4.3573e-05	3395.8	0.800171	339
3390	4.39606e-05	3405.8	0.800171	340
3400	4.78333e-05	3415.8	0.799866	341
3410	3.96667e-05	3425.8	0.799561	342
3420	3.60596e-05	3435.8	0.800171	343
3430	3.9505e-05	3445.8	0.799255	344
3440	4.32037e-05	3455.8	0.799255	345
3450	3.927e-05	3465.8	0.799561	346
3460	2.61902e-05	3475.8	0.799866	347
3470	3.84766e-05	3485.8	0.799866	348
3480	4.7699e-05	3495.8	0.799866	349
3490	3.53455e-05	3505.8	0.799561	350
3500	3.24738e-05	3515.8	0.799561	351
3510	3.84918e-05	3525.8	0.799255	352
3520	4.0564e-05	3535.8	0.799866	353
3530	3.75763e-05	3545.8	0.799255	354
3540	3.36273e-05	3555.8	0.799561	355
3550	4.1925e-05	3565.8	0.799255	356
3560	3.6795e-05	3575.8	0.799255	357
3570	3.83179e-05	3585.8	0.799866	358
3580	3.67645e-05	3595.8	0.799561	359
3590	3.41827e-05	3605.8	0.799255	360
3600	4.29047e-05	3615.8	0.799866	361
3610	3.36334e-05	3625.8	0.799561	362
3620	1.06018e-05	3635.8	0.799561	363
3630	3.04962e-05	3645.8	0.799561	364
3640	3.15063e-05	3655.8	0.799866	365
3650	3.08777e-05	3665.8	0.800171	366
3660	2.96204e-05	3675.8	0.799866	367
3670	2.89642e-05	3685.8	0.799561	368
3680	2.98248e-05	3695.8	0.799866	369
3690	3.03345e-05	3705.8	0.799255	370
3700	3.06641e-05	3715.8	0.799866	371
3710	3.08411e-05	3725.8	0.799255	372
3720	2.91748e-05	3735.8	0.79895	373
3730	2.79663e-05	3745.8	0.799561	374
3740	3.05298e-05	3755.8	0.799561	375
3750	3.06366e-05	3765.8	0.799866	376
3760	2.86194e-05	3775.8	0.799561	377
3770	3.02673e-05	3785.8	0.799866	378
3780	2.92969e-05	3795.8	0.799561	379
3790	2.95624e-05	3805.8	0.799866	380
3800	3.05817e-05	3815.8	0.799255	381
3810	3.16528e-05	3825.8	0.799255	382
3820	2.91077e-05	3835.8	0.799561	383
3830	3.00018e-05	3845.8	0.799561	384
3840	2.90741e-05	3855.8	0.79895	385
3850	2.72095e-05	3865.8	0.799866	386
3860	3.25928e-05	3875.8	0.799255	387
3870	2.83234e-05	3885.8	0.799255	388
3880	2.92755e-05	3895.8	0.799866	389
3890	2.93732e-05	3905.8	0.799255	390
3900	3.12073e-05	3915.8	0.799866	391
3910	2.92358e-05	3925.8	0.799561	392
3920	2.55981e-05	3935.8	0.799561	393
3930	3.10608e-05	3945.8	0.799866	394
3940	2.94006e-05	3955.8	0.799561	395
3950	2.67212e-05	3965.8	0.799866	396
3960	2.86835e-05	3975.8	0.799255	397
3970	2.74323e-05	3985.8	0.799561	398
3980	2.67181e-05	3995.8	0.799561	399
3990	2.82745e-05	4005.8	0.799561	400
4000	2.58057e-05	4015.8	0.799255	401
4010	2.51526e-05	4025.8	0.799255	402
4020	2.7124e-05	4035.8	0.798645	403
4030	2.68341e-05	4045.8	0.799561	404
4040	2.60559e-05	4055.8	0.799561	405
4050	2.63977e-05	4065.8	0.799866	406
4060	2.65228e-05	4075.8	0.799561	407
4070	2.52777e-05	4085.8	0.799866	408
4080	2.5351e-05	4095.8	0.799561	409
4090	2.6358e-05	4105.8	0.800476	410
4100	2.38373e-05	4115.8	0.799255	411
4110	2.52899e-05	4125.8	0.799561	412
4120	2.58118e-05	4135.8	0.799561	413
4130	2.68494e-05	4145.8	0.799255	414
4140	2.46338e-05	4155.8	0.800476	415
4150	2.612e-05	4165.8	0.799561	416
4160	2.3291e-05	4175.8	0.799255	417
4170	2.44659e-05	4185.8	0.799866	418
4180	2.58789e-05	4195.8	0.799866	419
4190	2.62451e-05	4205.8	0.799866	420
4200	2.72186e-05	4215.8	0.799561	421
4210	2.41547e-05	4225.8	0.799866	422
4220	2.31476e-05	4235.8	0.800171	423
4230	2.43866e-05	4245.8	0.800476	424
4240	2.3587e-05	4255.8	0.799866	425
4250	2.34863e-05	4265.8	0.799255	426
4260	2.42249e-05	4275.8	0.799561	427
4270	2.33765e-05	4285.8	0.799866	428
4280	2.28424e-05	4295.8	0.799866	429
4290	2.61108e-05	4305.8	0.800171	430
4300	2.48138e-05	4315.8	0.799866	431
4310	2.46521e-05	4325.8	0.799561	432
4320	2.18292e-05	4335.8	0.799561	433
4330	2.40997e-05	4345.8	0.79895	434
4340	2.41821e-05	4355.8	0.799561	435
4350	2.44965e-05	4365.8	0.799561	436
4360	2.40082e-05	4375.8	0.799255	437
4370	2.3175e-05	4385.8	0.799255	438
4380	2.77008e-05	4395.8	0.799255	439
4390	2.19727e-05	4405.8	0.799561	440
4400	2.31689e-05	4415.8	0.799255	441
4410	2.13989e-05	4425.8	0.800171	442
4420	2.23785e-05	4435.8	0.799561	443
4430	2.43256e-05	4445.8	0.799561	444
4440	2.16309e-05	4455.8	0.799255	445
4450	2.07703e-05	4465.8	0.799255	446
4460	2.38403e-05	4475.8	0.799561	447
4470	2.08374e-05	4485.8	0.799561	448
4480	2.2403e-05	4495.8	0.799561	449
4490	2.31262e-05	4505.8	0.799255	450
4500	2.27539e-05	4515.8	0.799561	451
4510	2.21497e-05	4525.8	0.799561	452
4520	2.24976e-05	4535.8	0.799561	453
4530	2.3291e-05	4545.8	0.800171	454
4540	2.27051e-05	4555.8	0.799255	455
4550	2.42828e-05	4565.8	0.799866	456
4560	2.2403e-05	4575.8	0.799561	457
4570	2.19391e-05	4585.8	0.799866	458
4580	2.70203e-05	4595.8	0.799255	459
4590	2.03674e-05	4605.8	0.799561	460
4600	2.1582e-05	4615.8	0.799866	461
4610	2.33215e-05	4625.8	0.799561	462
4620	2.13715e-05	4635.8	0.799866	463
4630	2.18323e-05	4645.8	0.799866	464
4640	2.09595e-05	4655.8	0.799561	465
4650	2.12494e-05	4665.8	0.800171	466
4660	2.15179e-05	4675.8	0.799561	467
4670	2.27661e-05	4685.8	0.799866	468
4680	2.03918e-05	4695.8	0.799866	469
4690	2.21344e-05	4705.8	0.800171	470
4700	2.05231e-05	4715.8	0.800171	471
4710	2.13074e-05	4725.8	0.799561	472
4720	2.19391e-05	4735.8	0.800171	473
4730	2.1106e-05	4745.8	0.799255	474
4740	2.07733e-05	4755.8	0.799866	475
4750	2.16553e-05	4765.8	0.79895	476
4760	1.9809e-05	4775.8	0.799561	477
4770	1.89362e-05	4785.8	0.799561	478
4780	2.16827e-05	4795.8	0.79895	479
4790	2.0871e-05	4805.8	0.799561	480
4800	2.24243e-05	4815.8	0.799561	481
4810	2.04681e-05	4825.8	0.799866	482
4820	2.13959e-05	4835.8	0.799255	483
4830	1.88538e-05	4845.8	0.799866	484
4840	2.09106e-05	4855.8	0.799866	485
4850	2.02728e-05	4865.8	0.799866	486
4860	2.10449e-05	4875.8	0.799255	487
4870	2.00195e-05	4885.8	0.799255	488
4880	2.05292e-05	4895.8	0.799561	489
4890	2.15027e-05	4905.8	0.799255	490
4900	2.07031e-05	4915.8	0.79895	491
4910	2.14691e-05	4925.8	0.799255	492
4920	2.02972e-05	4935.8	0.799561	493
4930	2.10724e-05	4945.8	0.799255	494
4940	2.08954e-05	4955.8	0.79895	495
4950	1.8335e-05	4965.8	0.799866	496
4960	2.06787e-05	4975.8	0.799866	497
4970	1.87836e-05	4985.8	0.800171	498
4980	2.01172e-05	4995.8	0.799255	499
4990	2.13226e-05	5005.8	0.79895	500
5000	1.88141e-05	5015.8	0.799561	501
5010	1.95251e-05	5025.8	0.799255	502
5020	1.90826e-05	5035.8	0.799561	503
5030	1.98059e-05	5045.8	0.799255	504
5040	2.02057e-05	5055.8	0.799561	505
5050	1.92413e-05	5065.8	0.799561	506
5060	1.88416e-05	5075.8	0.799561	507
5070	2.08527e-05	5085.8	0.799866	508
5080	1.91589e-05	5095.8	0.799255	509
5090	1.84631e-05	5105.8	0.800171	510
5100	1.82983e-05	5115.8	0.799561	511
5110	1.90186e-05	5125.8	0.799866	512
5120	1.88477e-05	5135.8	0.799561	513
5130	1.71722e-05	5145.8	0.799561	514
5140	1.89178e-05	5155.8	0.800171	515
5150	2.01508e-05	5165.8	0.800171	516
5160	1.89636e-05	5175.8	0.799255	517
5170	2.01508e-05	5185.8	0.799866	518
5180	1.7984e-05	5195.8	0.799561	519
5190	1.9751e-05	5205.8	0.799255	520
5200	1.86096e-05	5215.8	0.800171	521
5210	1.89575e-05	5225.8	0.799561	522
5220	1.87714e-05	5235.8	0.799866	523
5230	1.99097e-05	5245.8	0.799255	524
5240	2.05505e-05	5255.8	0.799255	525
5250	1.86737e-05	5265.8	0.799561	526
5260	1.8634e-05	5275.8	0.799866	527
5270	1.8576e-05	5285.8	0.799866	528
5280	1.90674e-05	5295.8	0.79895	529
5290	2.07764e-05	5305.8	0.799561	530
5300	1.76666e-05	5315.8	0.799561	531
5310	1.83044e-05	5325.8	0.800171	532
5320	1.84174e-05	5335.8	0.799255	533
5330	1.82465e-05	5345.8	0.799866	534
5340	1.74988e-05	5355.8	0.799255	535
5350	2.03278e-05	5365.8	0.799561	536
5360	1.86737e-05	5375.8	0.799866	537
5370	1.92566e-05	5385.8	0.799561	538
5380	1.92535e-05	5395.8	0.799561	539
5390	2.09534e-05	5405.8	0.799866	540
5400	1.9165e-05	5415.8	0.799866	541
5410	2.27173e-05	5425.8	0.799561	542
5420	1.88507e-05	5435.8	0.799561	543
5430	1.83624e-05	5445.8	0.799255	544
5440	1.72729e-05	5455.8	0.799866	545
5450	1.80542e-05	5465.8	0.799866	546
5460	1.86676e-05	5475.8	0.799561	547
5470	1.7514e-05	5485.8	0.799561	548
5480	1.80725e-05	5495.8	0.800476	549
5490	1.84143e-05	5505.8	0.799561	550
5500	1.76178e-05	5515.8	0.799561	551
5510	1.75415e-05	5525.8	0.799866	552
5520	1.70898e-05	5535.8	0.799561	553
5530	1.79291e-05	5545.8	0.799561	554
5540	1.85455e-05	5555.8	0.799255	555
5550	1.76636e-05	5565.8	0.799561	556
5560	1.8634e-05	5575.8	0.79895	557
5570	1.59943e-05	5585.8	0.799561	558
5580	1.60431e-05	5595.8	0.799561	559
5590	1.68457e-05	5605.8	0.799255	560
5600	1.72241e-05	5615.8	0.799561	561
5610	1.81061e-05	5625.8	0.799561	562
5620	1.89728e-05	5635.8	0.799866	563
5630	1.82129e-05	5645.8	0.799561	564
5640	1.69769e-05	5655.8	0.799866	565
5650	1.64551e-05	5665.8	0.799866	566
5660	1.73187e-05	5675.8	0.799561	567
5670	1.75049e-05	5685.8	0.799561	568
5680	1.85455e-05	5695.8	0.799866	569
5690	1.82037e-05	5705.8	0.800171	570
5700	1.82281e-05	5715.8	0.799561	571
5710	1.76666e-05	5725.8	0.799255	572
5720	1.72424e-05	5735.8	0.799866	573
5730	1.604e-05	5745.8	0.799866	574
5740	1.85822e-05	5755.8	0.799866	575
5750	1.70807e-05	5765.8	0.799561	576
5760	1.9455e-05	5775.8	0.799866	577
5770	1.7981e-05	5785.8	0.800171	578
5780	1.66351e-05	5795.8	0.799866	579
5790	1.70563e-05	5805.8	0.799561	580
5800	1.76422e-05	5815.8	0.799561	581
5810	2.26837e-05	5825.8	0.799561	582
5820	1.81427e-05	5835.8	0.799255	583
5830	1.92474e-05	5845.8	0.799866	584
5840	1.83594e-05	5855.8	0.79895	585
5850	1.68945e-05	5865.8	0.799561	586
5860	1.73828e-05	5875.8	0.799561	587
5870	1.78711e-05	5885.8	0.799866	588
5880	1.74622e-05	5895.8	0.799561	589
5890	1.80023e-05	5905.8	0.799561	590
5900	1.87775e-05	5915.8	0.799255	591
5910	1.67908e-05	5925.8	0.799561	592
5920	1.78802e-05	5935.8	0.799561	593
5930	1.86676e-05	5945.8	0.799866	594
5940	1.63727e-05	5955.8	0.799866	595
5950	1.69678e-05	5965.8	0.800171	596
5960	1.69159e-05	5975.8	0.800171	597
5970	1.6864e-05	5985.8	0.800171	598
5980	1.68915e-05	5995.8	0.799255	599
5990	1.71967e-05	6005.8	0.799866	600
6000	1.53168e-05	6015.8	0.799561	601
6010	1.78986e-05	6025.8	0.799255	602
6020	1.70868e-05	6035.8	0.799866	603
6030	1.61346e-05	6045.8	0.800171	604
6040	1.58813e-05	6055.8	0.800171	605
6050	1.73462e-05	6065.8	0.798645	606
6060	1.74927e-05	6075.8	0.799866	607
6070	1.51917e-05	6085.8	0.799866	608
6080	1.60553e-05	6095.8	0.799561	609
6090	1.86188e-05	6105.8	0.799866	610
6100	1.67145e-05	6115.8	0.799561	611
6110	1.59882e-05	6125.8	0.799561	612
6120	1.72028e-05	6135.8	0.799866	613
6130	1.80267e-05	6145.8	0.799255	614
6140	1.62842e-05	6155.8	0.799866	615
6150	1.59637e-05	6165.8	0.800171	616
6160	1.70502e-05	6175.8	0.799561	617
6170	1.64856e-05	6185.8	0.799561	618
6180	1.6098e-05	6195.8	0.800171	619
6190	1.77521e-05	6205.8	0.799866	620
6200	1.57867e-05	6215.8	0.79895	621
6210	1.62842e-05	6225.8	0.799561	622
6220	1.62933e-05	6235.8	0.799561	623
6230	1.71326e-05	6245.8	0.799561	624
6240	1.73889e-05	6255.8	0.799866	625
6250	1.69159e-05	6265.8	0.799561	626
6260	1.64307e-05	6275.8	0.79895	627
6270	1.57898e-05	6285.8	0.799561	628
6280	1.51978e-05	6295.8	0.799866	629
6290	1.56067e-05	6305.8	0.799561	630
6300	1.57593e-05	6315.8	0.799255	631
6310	1.74835e-05	6325.8	0.800171	632
6320	1.71478e-05	6335.8	0.799561	633
6330	1.6333e-05	6345.8	0.799866	634
6340	1.62476e-05	6355.8	0.799561	635
6350	1.47644e-05	6365.8	0.799866	636
6360	1.52374e-05	6375.8	0.799561	637
6370	1.66046e-05	6385.8	0.799561	638
6380	1.83319e-05	6395.8	0.799255	639
6390	1.64948e-05	6405.8	0.799866	640
6400	1.64124e-05	6415.8	0.799561	641
6410	1.49658e-05	6425.8	0.799255	642
6420	1.53717e-05	6435.8	0.799255	643
6430	1.45844e-05	6445.8	0.799561	644
6440	1.51001e-05	6455.8	0.799561	645
6450	1.53778e-05	6465.8	0.800171	646
6460	1.61926e-05	6475.8	0.799561	647
6470	1.59271e-05	6485.8	0.799866	648
6480	1.62201e-05	6495.8	0.799255	649
6490	1.64673e-05	6505.8	0.799866	650
6500	1.61102e-05	6515.8	0.799255	651
6510	1.66321e-05	6525.8	0.799866	652
6520	1.69525e-05	6535.8	0.799866	653
6530	1.55457e-05	6545.8	0.799866	654
6540	1.52283e-05	6555.8	0.800171	655
6550	1.46942e-05	6565.8	0.799561	656
6560	1.53625e-05	6575.8	0.799866	657
6570	1.63666e-05	6585.8	0.799561	658
6580	1.57135e-05	6595.8	0.799255	659
6590	1.63635e-05	6605.8	0.800171	660
6600	1.66351e-05	6615.8	0.799561	661
6610	1.58447e-05	6625.8	0.799255	662
6620	1.55121e-05	6635.8	0.799255	663
6630	1.66138e-05	6645.8	0.799255	664
6640	1.62567e-05	6655.8	0.799561	665
6650	1.40961e-05	6665.8	0.799561	666
6660	1.56189e-05	6675.8	0.799255	667
6670	1.45416e-05	6685.8	0.799561	668
6680	1.39252e-05	6695.8	0.799866	669
6690	1.47156e-05	6705.8	0.799866	670
6700	1.69891e-05	6715.8	0.800476	671
6710	1.58813e-05	6725.8	0.799255	672
6720	1.48773e-05	6735.8	0.799561	673
6730	1.47217e-05	6745.8	0.799561	674
6740	1.64856e-05	6755.8	0.799561	675
6750	1.59515e-05	6765.8	0.799255	676
6760	1.62994e-05	6775.8	0.799561	677
6770	1.55884e-05	6785.8	0.799866	678
6780	1.41693e-05	6795.8	0.799561	679
6790	1.49994e-05	6805.8	0.79895	680
6800	1.45844e-05	6815.8	0.799255	681
6810	1.3916e-05	6825.8	0.79895	682
6820	1.42822e-05	6835.8	0.799255	683
6830	1.38916e-05	6845.8	0.799866	684
6840	1.45996e-05	6855.8	0.799255	685
6850	1.40656e-05	6865.8	0.799866	686
6860	1.55365e-05	6875.8	0.799255	687
6870	1.51794e-05	6885.8	0.799561	688
6880	1.65314e-05	6895.8	0.799561	689
6890	1.66992e-05	6905.8	0.799866	690
6900	1.55548e-05	6915.8	0.800171	691
6910	1.51062e-05	6925.8	0.799561	692
6920	1.55609e-05	6935.8	0.800171	693
6930	1.45691e-05	6945.8	0.799561	694
6940	1.45782e-05	6955.8	0.799561	695
6950	1.38916e-05	6965.8	0.799561	696
6960	1.38794e-05	6975.8	0.79895	697
6970	1.36719e-05	6985.8	0.799866	698
6980	1.37909e-05	6995.8	0.799561	699
6990	1.35193e-05	7005.8	0.799866	700
7000	1.4151e-05	7015.8	0.799561	701
7010	1.38123e-05	7025.8	0.799866	702
7020	1.55914e-05	7035.8	0.799561	703
7030	1.60126e-05	7045.8	0.799561	704
7040	1.52863e-05	7055.8	0.799561	705
7050	1.57867e-05	7065.8	0.799561	706
7060	1.48224e-05	7075.8	0.799866	707
7070	1.59576e-05	7085.8	0.799561	708
7080	1.63452e-05	7095.8	0.799561	709
7090	1.48315e-05	7105.8	0.799255	710
7100	1.44226e-05	7115.8	0.799561	711
7110	1.43311e-05	7125.8	0.799866	712
7120	1.48712e-05	7135.8	0.799255	713
7130	1.51794e-05	7145.8	0.799561	714
7140	1.55457e-05	7155.8	0.799561	715
7150	1.55396e-05	7165.8	0.799561	716
7160	1.56433e-05	7175.8	0.799561	717
7170	1.36078e-05	7185.8	0.799561	718
7180	1.38336e-05	7195.8	0.79895	719
7190	1.46088e-05	7205.8	0.799866	720
7200	1.46179e-05	7215.8	0.799561	721
7210	1.4798e-05	7225.8	0.799561	722
7220	1.36749e-05	7235.8	0.799561	723
7230	1.4682e-05	7245.8	0.799561	724
7240	1.48468e-05	7255.8	0.799866	725
7250	1.54327e-05	7265.8	0.799561	726
7260	1.56677e-05	7275.8	0.799561	727
7270	1.52435e-05	7285.8	0.799255	728
7280	1.60583e-05	7295.8	0.799561	729
7290	1.54877e-05	7305.8	0.799561	730
7300	1.39496e-05	7315.8	0.799561	731
7310	1.41693e-05	7325.8	0.799561	732
7320	1.46881e-05	7335.8	0.799866	733
7330	1.4093e-05	7345.8	0.799866	734
7340	1.40411e-05	7355.8	0.799866	735
7350	1.27869e-05	7365.8	0.799866	736
7360	1.31653e-05	7375.8	0.799866	737
7370	1.31653e-05	7385.8	0.799866	738
7380	1.41266e-05	7395.8	0.800476	739
7390	1.31561e-05	7405.8	0.799561	740
7400	1.4035e-05	7415.8	0.799561	741
7410	1.27747e-05	7425.8	0.799561	742
7420	1.32355e-05	7435.8	0.799561	743
7430	1.2561e-05	7445.8	0.800171	744
7440	1.33789e-05	7455.8	0.799561	745
7450	1.41968e-05	7465.8	0.799866	746
7460	1.5271e-05	7475.8	0.799866	747
7470	1.63696e-05	7485.8	0.799561	748
7480	1.76147e-05	7495.8	0.799866	749
7490	1.87195e-05	7505.8	0.799561	750
7500	2.40601e-05	7515.8	0.799866	751
7510	2.76947e-05	7525.8	0.799561	752
7520	2.9248e-05	7535.8	0.799866	753
7530	2.88666e-05	7545.8	0.799255	754
7540	2.8183e-05	7555.8	0.800476	755
7550	2.97119e-05	7565.8	0.799255	756
7560	2.98859e-05	7575.8	0.799866	757
7570	3.00537e-05	7585.8	0.799255	758
7580	2.8476e-05	7595.8	0.800171	759
7590	2.76306e-05	7605.8	0.799561	760
7600	2.62726e-05	7615.8	0.799866	761
7610	2.79327e-05	7625.8	0.800171	762
7620	2.95898e-05	7635.8	0.800171	763
7630	2.81586e-05	7645.8	0.799561	764
7640	2.54456e-05	7655.8	0.799255	765
7650	2.44965e-05	7665.8	0.79895	766
7660	2.69745e-05	7675.8	0.799561	767
7670	2.67334e-05	7685.8	0.800171	768
7680	2.6825e-05	7695.8	0.799561	769
7690	2.69653e-05	7705.8	0.800476	770
7700	2.69104e-05	7715.8	0.799561	771
7710	2.79205e-05	7725.8	0.799561	772