File: ELECTROCHEM_DATA/09.12.2021 ПК341 BF4 1e-4 M TBABF4 0,1 M MeCN 1 mm anode 0,3 V/CA
Corrected time (s)	WE(1).Potential (V)	Time (s)	WE(1).Current (A)	Index
0	0.30011	15.778	0.000246674	1
10	0.299988	25.778	0.000231628	2
20	0.299957	35.778	0.000225525	3
30	0.300049	45.778	0.000219147	4
40	0.299927	55.778	0.000218353	5
50	0.299622	65.778	0.000216827	6
60	0.299957	75.778	0.00022467	7
70	0.299866	85.778	0.000214691	8
80	0.299957	95.778	0.000213715	9
90	0.299866	105.778	0.000222748	10
100	0.299896	115.778	0.000209167	11
110	0.299866	125.778	0.000206879	12
120	0.300079	135.778	0.000199005	13
130	0.299927	145.778	0.000199463	14
140	0.299927	155.778	0.000200256	15
150	0.299896	165.778	0.000205353	16
160	0.300018	175.778	0.000197235	17
170	0.300049	185.778	0.000189423	18
180	0.299896	195.778	0.000197998	19
190	0.299896	205.778	0.000190948	20
200	0.299896	215.778	0.000185913	21
210	0.299988	225.778	0.000193329	22
220	0.299988	235.778	0.000189758	23
230	0.300018	245.778	0.000183472	24
240	0.299927	255.778	0.000188385	25
250	0.299927	265.778	0.000179016	26
260	0.299957	275.778	0.000187225	27
270	0.299927	285.778	0.000177856	28
280	0.299896	295.778	0.000176941	29
290	0.30011	305.778	0.000171143	30
300	0.300049	315.778	0.000180542	31
310	0.299988	325.778	0.000177826	32
320	0.299805	335.778	0.000170227	33
330	0.299866	345.778	0.000169434	34
340	0.299927	355.778	0.000164673	35
350	0.299896	365.778	0.000170258	36
360	0.299988	375.778	0.000169861	37
370	0.300049	385.778	0.000170959	38
380	0.299896	395.778	0.000198181	39
390	0.299988	405.778	0.000155579	40
400	0.299988	415.778	0.000160553	41
410	0.299896	425.778	0.000157745	42
420	0.299957	435.778	0.000159973	43
430	0.300049	445.778	0.000155212	44
440	0.30014	455.778	0.000152191	45
450	0.300049	465.778	0.000162476	46
460	0.300018	475.778	0.000156067	47
470	0.299866	485.778	0.000158936	48
480	0.30011	495.778	0.000144592	49
490	0.300018	505.778	0.000156281	50
500	0.299927	515.778	0.000152039	51
510	0.299988	525.778	0.000145233	52
520	0.299988	535.778	0.000149963	53
530	0.299927	545.778	0.000148743	54
540	0.299988	555.778	0.000156281	55
550	0.300049	565.778	0.00014328	56
560	0.299866	575.778	0.000140991	57
570	0.299988	585.778	0.000140503	58
580	0.300018	595.778	0.000138031	59
590	0.299896	605.778	0.000132721	60
600	0.299988	615.778	0.000139526	61
610	0.30011	625.778	0.00013446	62
620	0.299988	635.778	0.000131958	63
630	0.299988	645.778	0.000133698	64
640	0.299927	655.778	0.000130219	65
650	0.299896	665.778	0.000132599	66
660	0.300018	675.778	0.000131958	67
670	0.300049	685.778	0.000128082	68
680	0.300049	695.778	0.000136902	69
690	0.300049	705.778	0.000127869	70
700	0.300049	715.778	0.000123535	71
710	0.300018	725.778	0.00012674	72
720	0.299927	735.778	0.000121399	73
730	0.299866	745.778	0.000122833	74
740	0.299896	755.778	0.000125061	75
750	0.300049	765.778	0.000118774	76
760	0.300049	775.778	0.000119324	77
770	0.299988	785.778	0.000118378	78
780	0.30011	795.778	0.000120728	79
790	0.30011	805.778	0.00011319	80
800	0.300049	815.778	0.000113983	81
810	0.299957	825.778	0.000116425	82
820	0.300018	835.778	0.000112732	83
830	0.299896	845.778	0.000113037	84
840	0.299927	855.778	0.000113068	85
850	0.299957	865.778	0.000108795	86
860	0.299896	875.778	0.000111511	87
870	0.299988	885.778	0.000108032	88
880	0.299957	895.778	0.000110321	89
890	0.299927	905.778	0.000103638	90
900	0.299927	915.778	0.000105408	91
910	0.299988	925.778	0.00010434	92
920	0.299988	935.778	0.000100403	93
930	0.300018	945.778	0.000108093	94
940	0.299988	955.778	0.000105164	95
950	0.299988	965.778	0.000100342	96
960	0.30011	975.778	0.000100769	97
970	0.300079	985.778	9.9884e-05	98
980	0.300079	995.778	0.000100525	99
990	0.30011	1005.78	9.89075e-05	100
1000	0.30011	1015.78	9.92737e-05	101
1010	0.300018	1025.78	9.70764e-05	102
1020	0.299988	1035.78	9.69238e-05	103
1030	0.300018	1045.78	9.3689e-05	104
1040	0.299866	1055.78	9.48792e-05	105
1050	0.299957	1065.78	9.49402e-05	106
1060	0.299835	1075.78	9.50012e-05	107
1070	0.299835	1085.78	9.48486e-05	108
1080	0.299744	1095.78	9.95789e-05	109
1090	0.299805	1105.78	9.27734e-05	110
1100	0.299896	1115.78	8.76465e-05	111
1110	0.299835	1125.78	8.67615e-05	112
1120	0.299866	1135.78	8.9386e-05	113
1130	0.299957	1145.78	8.6792e-05	114
1140	0.299927	1155.78	8.66699e-05	115
1150	0.299957	1165.78	9.55811e-05	116
1160	0.299957	1175.78	8.20923e-05	117
1170	0.299896	1185.78	8.47473e-05	118
1180	0.299835	1195.78	8.43506e-05	119
1190	0.299988	1205.78	8.96606e-05	120
1200	0.299896	1215.78	8.38318e-05	121
1210	0.299896	1225.78	8.29773e-05	122
1220	0.299927	1235.78	8.04138e-05	123
1230	0.299988	1245.78	7.91626e-05	124
1240	0.299896	1255.78	8.04749e-05	125
1250	0.299896	1265.78	7.85828e-05	126
1260	0.299957	1275.78	7.95898e-05	127
1270	0.299957	1285.78	7.724e-05	128
1280	0.299957	1295.78	7.69958e-05	129
1290	0.299896	1305.78	7.69043e-05	130
1300	0.299835	1315.78	7.70264e-05	131
1310	0.299744	1325.78	7.37e-05	132
1320	0.299957	1335.78	7.66602e-05	133
1330	0.299957	1345.78	7.68433e-05	134
1340	0.299896	1355.78	7.26013e-05	135
1350	0.299805	1365.78	7.33948e-05	136
1360	0.299835	1375.78	7.35779e-05	137
1370	0.299805	1385.78	7.27844e-05	138
1380	0.299988	1395.78	7.0343e-05	139
1390	0.299774	1405.78	7.16858e-05	140
1400	0.299774	1415.78	7.03735e-05	141
1410	0.299866	1425.78	6.90308e-05	142
1420	0.299896	1435.78	6.88171e-05	143
1430	0.299896	1445.78	7.05261e-05	144
1440	0.299957	1455.78	6.86646e-05	145
1450	0.299866	1465.78	6.9397e-05	146
1460	0.299866	1475.78	6.79321e-05	147
1470	0.300018	1485.78	6.68945e-05	148
1480	0.299896	1495.78	6.71387e-05	149
1490	0.299957	1505.78	6.39648e-05	150
1500	0.299835	1515.78	6.5979e-05	151
1510	0.299805	1525.78	6.41174e-05	152
1520	0.299835	1535.78	6.604e-05	153
1530	0.299988	1545.78	6.57654e-05	154
1540	0.299927	1555.78	6.24695e-05	155
1550	0.299896	1565.78	6.28357e-05	156
1560	0.299957	1575.78	6.2439e-05	157
1570	0.300018	1585.78	6.30493e-05	158
1580	0.299957	1595.78	6.27747e-05	159
1590	0.299835	1605.78	6.06689e-05	160
1600	0.299805	1615.78	5.86853e-05	161
1610	0.299774	1625.78	6.15234e-05	162
1620	0.299896	1635.78	5.82886e-05	163
1630	0.299805	1645.78	6.16455e-05	164
1640	0.299805	1655.78	5.71899e-05	165
1650	0.299866	1665.78	6.59485e-05	166
1660	0.299896	1675.78	5.68542e-05	167
1670	0.299896	1685.78	5.69153e-05	168
1680	0.299927	1695.78	5.86548e-05	169
1690	0.299927	1705.78	5.84412e-05	170
1700	0.299957	1715.78	5.69458e-05	171
1710	0.299835	1725.78	5.69763e-05	172
1720	0.299774	1735.78	5.67017e-05	173
1730	0.299805	1745.78	5.50537e-05	174
1740	0.299805	1755.78	5.40161e-05	175
1750	0.299988	1765.78	5.53894e-05	176
1760	0.299988	1775.78	5.36804e-05	177
1770	0.299988	1785.78	5.52673e-05	178
1780	0.299896	1795.78	5.40161e-05	179
1790	0.299866	1805.78	5.27344e-05	180
1800	0.299805	1815.78	5.20325e-05	181
1810	0.299774	1825.78	5.17883e-05	182
1820	0.299805	1835.78	5.27954e-05	183
1830	0.299866	1845.78	5.29785e-05	184
1840	0.299866	1855.78	4.97742e-05	185
1850	0.299927	1865.78	5.12085e-05	186
1860	0.299896	1875.78	5.05066e-05	187
1870	0.299866	1885.78	4.97131e-05	188
1880	0.299805	1895.78	5.0293e-05	189
1890	0.299866	1905.78	5.0415e-05	190
1900	0.299744	1915.78	5.00183e-05	191
1910	0.299805	1925.78	4.99878e-05	192
1920	0.299835	1935.78	4.99268e-05	193
1930	0.299927	1945.78	4.84619e-05	194
1940	0.299805	1955.78	4.82178e-05	195
1950	0.299957	1965.78	4.80957e-05	196
1960	0.299957	1975.78	4.98657e-05	197
1970	0.299988	1985.78	4.69666e-05	198
1980	0.300018	1995.78	4.66919e-05	199
1990	0.299805	2005.78	4.53857e-05	200
2000	0.299866	2015.78	4.73328e-05	201
2010	0.299835	2025.78	4.47388e-05	202
2020	0.299835	2035.78	4.61731e-05	203
2030	0.299957	2045.78	4.54803e-05	204
2040	0.299896	2055.78	4.57733e-05	205
2050	0.299805	2065.78	4.67529e-05	206
2060	0.299927	2075.78	4.37988e-05	207
2070	0.299988	2085.78	4.37683e-05	208
2080	0.299896	2095.78	4.28955e-05	209
2090	0.299835	2105.78	4.31976e-05	210
2100	0.299713	2115.78	4.38202e-05	211
2110	0.299805	2125.78	4.40247e-05	212
2120	0.299774	2135.78	4.25385e-05	213
2130	0.299774	2145.78	4.27002e-05	214
2140	0.299805	2155.78	4.16931e-05	215
2150	0.299896	2165.78	4.18579e-05	216
2160	0.299957	2175.78	4.0976e-05	217
2170	0.300018	2185.78	4.1803e-05	218
2180	0.299988	2195.78	4.06281e-05	219
2190	0.299957	2205.78	4.05609e-05	220
2200	0.299896	2215.78	4.22272e-05	221
2210	0.299805	2225.78	4.18518e-05	222
2220	0.299835	2235.78	4.06403e-05	223
2230	0.299866	2245.78	4.08295e-05	224
2240	0.299866	2255.78	4.03168e-05	225
2250	0.299988	2265.78	4.02161e-05	226
2260	0.299866	2275.78	3.98804e-05	227
2270	0.299927	2285.78	3.89069e-05	228
2280	0.299988	2295.78	4.08447e-05	229
2290	0.300018	2305.78	3.88e-05	230
2300	0.299957	2315.78	3.84705e-05	231
2310	0.300018	2325.78	3.90747e-05	232
2320	0.299927	2335.78	3.85468e-05	233
2330	0.299835	2345.78	3.93738e-05	234
2340	0.299927	2355.78	3.82416e-05	235
2350	0.299866	2365.78	3.7677e-05	236
2360	0.299835	2375.78	3.70148e-05	237
2370	0.299866	2385.78	3.63892e-05	238
2380	0.299805	2395.78	3.92029e-05	239
2390	0.299957	2405.78	3.77228e-05	240
2400	0.299927	2415.78	3.64136e-05	241
2410	0.299805	2425.78	3.66974e-05	242
2420	0.299927	2435.78	3.64777e-05	243
2430	0.299866	2445.78	3.63495e-05	244
2440	0.299805	2455.78	3.62549e-05	245
2450	0.299957	2465.78	3.61847e-05	246
2460	0.299957	2475.78	3.5611e-05	247
2470	0.299988	2485.78	3.51776e-05	248
2480	0.300049	2495.78	3.67035e-05	249
2490	0.300049	2505.78	3.55682e-05	250
2500	0.299957	2515.78	3.58795e-05	251
2510	0.299957	2525.78	3.479e-05	252
2520	0.299988	2535.78	3.45978e-05	253
2530	0.299866	2545.78	3.4433e-05	254
2540	0.299927	2555.78	3.44055e-05	255
2550	0.299896	2565.78	3.54279e-05	256
2560	0.299927	2575.78	3.46832e-05	257
2570	0.300018	2585.78	3.43109e-05	258
2580	0.299896	2595.78	3.42865e-05	259
2590	0.299835	2605.78	3.32611e-05	260
2600	0.299988	2615.78	3.45032e-05	261
2610	0.299927	2625.78	3.29346e-05	262
2620	0.300018	2635.78	3.31238e-05	263
2630	0.299866	2645.78	3.2782e-05	264
2640	0.299866	2655.78	3.40515e-05	265
2650	0.299896	2665.78	3.29803e-05	266
2660	0.299866	2675.78	3.24768e-05	267
2670	0.299866	2685.78	3.21289e-05	268
2680	0.299896	2695.78	3.26233e-05	269
2690	0.300018	2705.78	3.22937e-05	270
2700	0.299988	2715.78	3.26569e-05	271
2710	0.300018	2725.78	3.27728e-05	272
2720	0.299957	2735.78	3.19244e-05	273
2730	0.300018	2745.78	3.17871e-05	274
2740	0.299957	2755.78	3.18268e-05	275
2750	0.300018	2765.78	3.2608e-05	276
2760	0.299988	2775.78	3.11707e-05	277
2770	0.299988	2785.78	3.08472e-05	278
2780	0.299957	2795.78	3.25714e-05	279
2790	0.299988	2805.78	3.0899e-05	280
2800	0.300049	2815.78	3.11493e-05	281
2810	0.299988	2825.78	3.06732e-05	282
2820	0.300079	2835.78	3.09601e-05	283
2830	0.30011	2845.78	3.01361e-05	284
2840	0.299927	2855.78	2.98248e-05	285
2850	0.299896	2865.78	3.11768e-05	286
2860	0.299866	2875.78	3.03101e-05	287
2870	0.299988	2885.78	3.02856e-05	288
2880	0.299957	2895.78	2.98981e-05	289
2890	0.300079	2905.78	3.0545e-05	290
2900	0.299988	2915.78	2.94495e-05	291
2910	0.299835	2925.78	2.95135e-05	292
2920	0.299896	2935.78	2.99377e-05	293
2930	0.299866	2945.78	2.98798e-05	294
2940	0.299927	2955.78	2.88452e-05	295
2950	0.299896	2965.78	2.97638e-05	296
2960	0.299957	2975.78	2.97455e-05	297
2970	0.299988	2985.78	2.88696e-05	298
2980	0.299896	2995.78	2.90619e-05	299
2990	0.299866	3005.78	2.89978e-05	300
3000	0.299835	3015.78	2.89795e-05	301
3010	0.299957	3025.78	2.90955e-05	302
3020	0.299866	3035.78	3.00934e-05	303
3030	0.299988	3045.78	2.88727e-05	304
3040	0.300079	3055.78	2.87628e-05	305
3050	0.300018	3065.78	2.85553e-05	306
3060	0.299957	3075.78	2.86407e-05	307
3070	0.299835	3085.78	2.79755e-05	308
3080	0.299866	3095.78	2.86652e-05	309
3090	0.299957	3105.78	2.81525e-05	310
3100	0.300018	3115.78	2.81158e-05	311
3110	0.299927	3125.78	2.85828e-05	312
3120	0.299927	3135.78	2.79724e-05	313
3130	0.299927	3145.78	2.76611e-05	314
3140	0.299988	3155.78	2.80914e-05	315
3150	0.300018	3165.78	2.85278e-05	316
3160	0.300049	3175.78	2.8183e-05	317
3170	0.300018	3185.78	2.77954e-05	318
3180	0.300018	3195.78	2.81616e-05	319
3190	0.299957	3205.78	2.76367e-05	320
3200	0.299957	3215.78	2.90985e-05	321
3210	0.300018	3225.78	2.72461e-05	322
3220	0.299988	3235.78	2.77924e-05	323
3230	0.299927	3245.78	2.74567e-05	324
3240	0.299957	3255.78	2.78015e-05	325
3250	0.299896	3265.78	2.74628e-05	326
3260	0.299896	3275.78	2.73499e-05	327
3270	0.299835	3285.78	2.90039e-05	328
3280	0.299896	3295.78	2.68616e-05	329
3290	0.299988	3305.78	2.67975e-05	330
3300	0.299988	3315.78	2.69165e-05	331
3310	0.299988	3325.78	2.74689e-05	332
3320	0.299988	3335.78	2.77039e-05	333
3330	0.299957	3345.78	2.68555e-05	334
3340	0.300018	3355.78	2.66235e-05	335
3350	0.300018	3365.78	2.63092e-05	336
3360	0.299835	3375.78	2.66907e-05	337
3370	0.299896	3385.78	2.65137e-05	338
3380	0.299957	3395.78	2.66266e-05	339
3390	0.299896	3405.78	2.59521e-05	340
3400	0.299896	3415.78	2.62024e-05	341
3410	0.299805	3425.78	2.64648e-05	342
3420	0.299866	3435.78	2.76428e-05	343
3430	0.299988	3445.78	2.58942e-05	344
3440	0.300018	3455.78	2.61902e-05	345
3450	0.30011	3465.78	2.67456e-05	346
3460	0.299988	3475.78	2.6828e-05	347
3470	0.299957	3485.78	2.56531e-05	348
3480	0.299866	3495.78	2.61993e-05	349
3490	0.299896	3505.78	2.56226e-05	350
3500	0.299988	3515.78	2.64954e-05	351
3510	0.300079	3525.78	2.62848e-05	352
3520	0.299957	3535.78	2.59644e-05	353
3530	0.299896	3545.78	2.57507e-05	354
3540	0.299835	3555.78	2.57904e-05	355
3550	0.299805	3565.78	2.61169e-05	356
3560	0.299896	3575.78	2.54364e-05	357
3570	0.300018	3585.78	2.56561e-05	358
3580	0.299957	3595.78	2.53174e-05	359
3590	0.300049	3605.78	2.64618e-05	360
3600	0.299896	3615.78	2.53418e-05	361
3610	0.299866	3625.78	2.53937e-05	362
3620	0.299927	3635.78	2.54395e-05	363
3630	0.299835	3645.78	2.64008e-05	364
3640	0.299835	3655.78	2.5E-05	365
3650	0.299866	3665.78	2.56775e-05	366
3660	0.299896	3675.78	2.44537e-05	367
3670	0.300018	3685.78	2.58179e-05	368
3680	0.300018	3695.78	2.48718e-05	369
3690	0.299988	3705.78	2.50366e-05	370
3700	0.299866	3715.78	2.50641e-05	371
3710	0.299866	3725.78	2.44965e-05	372
3720	0.299896	3735.78	2.42889e-05	373
3730	0.299927	3745.78	2.4176e-05	374
3740	0.299866	3755.78	2.42615e-05	375
3750	0.299896	3765.78	2.48962e-05	376
3760	0.299896	3775.78	2.39319e-05	377
3770	0.299957	3785.78	2.44873e-05	378
3780	0.299957	3795.78	2.45972e-05	379
3790	0.299896	3805.78	2.4176e-05	380
3800	0.299927	3815.78	2.39044e-05	381
3810	0.300018	3825.78	2.45972e-05	382
3820	0.300079	3835.78	2.45972e-05	383
3830	0.300079	3845.78	2.42828e-05	384
3840	0.300018	3855.78	2.3999e-05	385
3850	0.300049	3865.78	2.38129e-05	386
3860	0.300018	3875.78	2.39105e-05	387
3870	0.299927	3885.78	2.4585e-05	388
3880	0.300049	3895.78	2.42157e-05	389
3890	0.300049	3905.78	2.38708e-05	390
3900	0.299988	3915.78	2.41547e-05	391
3910	0.300018	3925.78	2.42279e-05	392
3920	0.299957	3935.78	2.39227e-05	393
3930	0.299896	3945.78	2.40204e-05	394
3940	0.299988	3955.78	2.36145e-05	395
3950	0.300018	3965.78	2.35352e-05	396
3960	0.300018	3975.78	2.44659e-05	397
3970	0.299957	3985.78	2.38922e-05	398
3980	0.300018	3995.78	2.32086e-05	399
3990	0.300049	4005.78	2.33978e-05	400
4000	0.299896	4015.78	2.34863e-05	401
4010	0.299988	4025.78	2.35504e-05	402
4020	0.299988	4035.78	2.32208e-05	403
4030	0.30011	4045.78	2.35443e-05	404
4040	0.299988	4055.78	2.36725e-05	405
4050	0.300018	4065.78	2.37854e-05	406
4060	0.299866	4075.78	2.3053e-05	407
4070	0.300018	4085.78	2.30652e-05	408
4080	0.300018	4095.78	2.31873e-05	409
4090	0.299927	4105.78	2.32819e-05	410
4100	0.299988	4115.78	2.33429e-05	411
4110	0.300018	4125.78	2.37762e-05	412
4120	0.300018	4135.78	2.40631e-05	413
4130	0.30011	4145.78	2.30896e-05	414
4140	0.299896	4155.78	2.28882e-05	415
4150	0.299927	4165.78	2.37762e-05	416
4160	0.299835	4175.78	2.29858e-05	417
4170	0.299957	4185.78	2.29858e-05	418
4180	0.299805	4195.78	2.28363e-05	419
4190	0.299835	4205.78	2.37366e-05	420
4200	0.299896	4215.78	2.28699e-05	421
4210	0.299957	4225.78	2.30652e-05	422
4220	0.299957	4235.78	2.38647e-05	423
4230	0.299988	4245.78	2.29767e-05	424
4240	0.300018	4255.78	2.3288e-05	425
4250	0.299957	4265.78	2.32849e-05	426
4260	0.299927	4275.78	2.24609e-05	427
4270	0.299957	4285.78	2.30164e-05	428
4280	0.299988	4295.78	2.25525e-05	429
4290	0.299988	4305.78	2.28851e-05	430
4300	0.300018	4315.78	2.26898e-05	431
4310	0.299927	4325.78	2.28271e-05	432
4320	0.299927	4335.78	2.35138e-05	433
4330	0.299835	4345.78	2.29126e-05	434
4340	0.299896	4355.78	2.28119e-05	435
4350	0.299988	4365.78	2.26013e-05	436
4360	0.300018	4375.78	2.28333e-05	437
4370	0.299927	4385.78	2.26105e-05	438
4380	0.299896	4395.78	2.30988e-05	439
4390	0.299927	4405.78	2.33368e-05	440
4400	0.299957	4415.78	2.26257e-05	441
4410	0.299957	4425.78	2.26318e-05	442
4420	0.300018	4435.78	2.26868e-05	443
4430	0.299988	4445.78	2.28699e-05	444
4440	0.299988	4455.78	2.2525e-05	445
4450	0.299957	4465.78	2.27509e-05	446
4460	0.299927	4475.78	2.26868e-05	447
4470	0.299957	4485.78	2.24915e-05	448
4480	0.299957	4495.78	2.24762e-05	449
4490	0.300049	4505.78	2.26898e-05	450
4500	0.299988	4515.78	2.25281e-05	451
4510	0.300018	4525.78	2.20123e-05	452
4520	0.300079	4535.78	2.27173e-05	453
4530	0.300018	4545.78	2.26471e-05	454
4540	0.299927	4555.78	2.2345e-05	455
4550	0.299896	4565.78	2.24335e-05	456
4560	0.299866	4575.78	2.29706e-05	457
4570	0.299866	4585.78	2.27203e-05	458
4580	0.299835	4595.78	2.25464e-05	459
4590	0.299896	4605.78	2.22107e-05	460
4600	0.299896	4615.78	2.25037e-05	461
4610	0.299896	4625.78	2.26227e-05	462
4620	0.299957	4635.78	2.29004e-05	463
4630	0.300018	4645.78	2.30621e-05	464
4640	0.300018	4655.78	2.21527e-05	465
4650	0.300079	4665.78	2.22076e-05	466
4660	0.300018	4675.78	2.25708e-05	467
4670	0.299957	4685.78	2.3288e-05	468
4680	0.299927	4695.78	2.19391e-05	469
4690	0.299896	4705.78	2.31689e-05	470
4700	0.299896	4715.78	2.23755e-05	471
4710	0.299957	4725.78	2.22015e-05	472
4720	0.299988	4735.78	2.21375e-05	473
4730	0.299866	4745.78	2.20093e-05	474
4740	0.299896	4755.78	2.20886e-05	475
4750	0.299866	4765.78	2.24243e-05	476
4760	0.299988	4775.78	2.22992e-05	477
4770	0.299927	4785.78	2.21008e-05	478
4780	0.300049	4795.78	2.25128e-05	479
4790	0.300018	4805.78	2.19849e-05	480
4800	0.300018	4815.78	2.24762e-05	481
4810	0.299988	4825.78	2.25128e-05	482
4820	0.300049	4835.78	2.17804e-05	483
4830	0.299957	4845.78	2.22595e-05	484
4840	0.299896	4855.78	2.20947e-05	485
4850	0.299896	4865.78	2.21436e-05	486
4860	0.299835	4875.78	2.18689e-05	487
4870	0.299896	4885.78	2.24579e-05	488
4880	0.299896	4895.78	2.22137e-05	489
4890	0.299896	4905.78	2.25189e-05	490
4900	0.299927	4915.78	2.20551e-05	491
4910	0.299835	4925.78	2.24731e-05	492
4920	0.299896	4935.78	2.3526e-05	493
4930	0.299866	4945.78	2.17346e-05	494
4940	0.299866	4955.78	2.21893e-05	495
4950	0.299927	4965.78	2.20703e-05	496
4960	0.299835	4975.78	2.20551e-05	497
4970	0.299927	4985.78	2.20154e-05	498
4980	0.299805	4995.78	2.25433e-05	499
4990	0.299927	5005.78	2.25128e-05	500
5000	0.299896	5015.78	2.20215e-05	501
5010	0.299957	5025.78	2.17438e-05	502
5020	0.299927	5035.78	2.1994e-05	503
5030	0.299866	5045.78	2.21649e-05	504
5040	0.299896	5055.78	2.19452e-05	505
5050	0.299835	5065.78	2.21771e-05	506
5060	0.299957	5075.78	2.17773e-05	507
5070	0.300049	5085.78	2.20276e-05	508
5080	0.299927	5095.78	2.21588e-05	509
5090	0.299957	5105.78	2.18628e-05	510
5100	0.299988	5115.78	2.21008e-05	511
5110	0.299988	5125.78	2.19635e-05	512
5120	0.299957	5135.78	2.19177e-05	513
5130	0.300018	5145.78	2.17712e-05	514
5140	0.300079	5155.78	2.17407e-05	515
5150	0.300018	5165.78	2.18384e-05	516
5160	0.300018	5175.78	2.15698e-05	517
5170	0.300018	5185.78	2.20795e-05	518
5180	0.299927	5195.78	2.15179e-05	519
5190	0.299957	5205.78	2.15668e-05	520
5200	0.299927	5215.78	2.17133e-05	521
5210	0.299866	5225.78	2.17316e-05	522
5220	0.299957	5235.78	2.20886e-05	523
5230	0.300079	5245.78	2.13867e-05	524
5240	0.299988	5255.78	2.20154e-05	525
5250	0.299927	5265.78	2.18262e-05	526
5260	0.299896	5275.78	2.17468e-05	527
5270	0.299988	5285.78	2.17682e-05	528
5280	0.300049	5295.78	2.14233e-05	529
5290	0.299957	5305.78	2.18323e-05	530
5300	0.299866	5315.78	2.18445e-05	531
5310	0.299957	5325.78	2.15271e-05	532
5320	0.299988	5335.78	2.13287e-05	533
5330	0.299835	5345.78	2.16064e-05	534
5340	0.299835	5355.78	2.17987e-05	535
5350	0.299988	5365.78	2.17834e-05	536
5360	0.299957	5375.78	2.12158e-05	537
5370	0.300079	5385.78	2.15332e-05	538
5380	0.299957	5395.78	2.12952e-05	539
5390	0.299896	5405.78	2.13409e-05	540
5400	0.300018	5415.78	2.13135e-05	541
5410	0.300049	5425.78	2.146e-05	542
5420	0.299988	5435.78	2.13623e-05	543
5430	0.299957	5445.78	2.13196e-05	544
5440	0.299835	5455.78	2.13226e-05	545
5450	0.299988	5465.78	2.14905e-05	546
5460	0.299927	5475.78	2.15942e-05	547
5470	0.299896	5485.78	2.11365e-05	548
5480	0.299866	5495.78	2.14752e-05	549
5490	0.300018	5505.78	2.10815e-05	550
5500	0.300018	5515.78	2.12555e-05	551
5510	0.299896	5525.78	2.1521e-05	552
5520	0.299896	5535.78	2.13043e-05	553
5530	0.299988	5545.78	2.10907e-05	554
5540	0.300049	5555.78	2.12097e-05	555
5550	0.299988	5565.78	2.12799e-05	556
5560	0.299866	5575.78	2.13776e-05	557
5570	0.299896	5585.78	2.17926e-05	558
5580	0.299988	5595.78	2.13135e-05	559
5590	0.300018	5605.78	2.11609e-05	560
5600	0.300018	5615.78	2.15302e-05	561
5610	0.300049	5625.78	2.16492e-05	562
5620	0.30011	5635.78	2.13318e-05	563
5630	0.299988	5645.78	2.10815e-05	564
5640	0.299896	5655.78	2.09808e-05	565
5650	0.299866	5665.78	2.18536e-05	566
5660	0.299866	5675.78	2.1283e-05	567
5670	0.299835	5685.78	2.12677e-05	568
5680	0.299896	5695.78	2.09625e-05	569
5690	0.299927	5705.78	2.1344e-05	570
5700	0.300018	5715.78	2.13165e-05	571
5710	0.300049	5725.78	2.19086e-05	572
5720	0.300049	5735.78	2.14447e-05	573
5730	0.299957	5745.78	2.14691e-05	574
5740	0.300049	5755.78	2.12372e-05	575
5750	0.300049	5765.78	2.16095e-05	576
5760	0.300079	5775.78	2.14813e-05	577
5770	0.299988	5785.78	2.1228e-05	578
5780	0.299866	5795.78	2.13898e-05	579
5790	0.299896	5805.78	2.17407e-05	580
5800	0.299988	5815.78	2.10327e-05	581
5810	0.300018	5825.78	2.13348e-05	582
5820	0.299957	5835.78	2.11121e-05	583
5830	0.299866	5845.78	2.13409e-05	584
5840	0.299866	5855.78	2.14325e-05	585
5850	0.299988	5865.78	2.12494e-05	586
5860	0.300049	5875.78	2.12952e-05	587
5870	0.299988	5885.78	2.13898e-05	588
5880	0.299988	5895.78	2.14142e-05	589
5890	0.299957	5905.78	2.16431e-05	590
5900	0.299896	5915.78	2.16248e-05	591
5910	0.299988	5925.78	2.16522e-05	592
5920	0.300049	5935.78	2.14325e-05	593
5930	0.300079	5945.78	2.12311e-05	594
5940	0.300018	5955.78	2.1225e-05	595
5950	0.300049	5965.78	2.18079e-05	596
5960	0.300018	5975.78	2.13074e-05	597
5970	0.300018	5985.78	2.17133e-05	598
5980	0.299896	5995.78	2.2171e-05	599
5990	0.299988	6005.78	2.14203e-05	600
6000	0.299957	6015.78	2.20581e-05	601
6010	0.299988	6025.78	2.19879e-05	602
6020	0.299927	6035.78	2.18353e-05	603
6030	0.299957	6045.78	2.22443e-05	604
6040	0.299896	6055.78	2.28394e-05	605
6050	0.299866	6065.78	2.18262e-05	606
6060	0.299927	6075.78	2.2644e-05	607
6070	0.299896	6085.78	2.20398e-05	608
6080	0.299988	6095.78	2.23206e-05	609
6090	0.300049	6105.78	2.22504e-05	610
6100	0.300018	6115.78	2.1994e-05	611
6110	0.300049	6125.78	2.23267e-05	612
6120	0.299988	6135.78	2.21252e-05	613
6130	0.299988	6145.78	2.22809e-05	614
6140	0.299957	6155.78	2.22687e-05	615
6150	0.299957	6165.78	2.23267e-05	616
6160	0.299957	6175.78	2.23083e-05	617
6170	0.299957	6185.78	2.3053e-05	618
6180	0.299957	6195.78	2.27448e-05	619
6190	0.299957	6205.78	2.27997e-05	620
6200	0.299896	6215.78	2.20551e-05	621
6210	0.299988	6225.78	2.21802e-05	622
6220	0.300049	6235.78	2.22321e-05	623
6230	0.300018	6245.78	2.27081e-05	624
6240	0.300018	6255.78	2.22198e-05	625
6250	0.299927	6265.78	2.24945e-05	626
6260	0.299927	6275.78	2.23724e-05	627
6270	0.299835	6285.78	2.28302e-05	628
6280	0.299896	6295.78	2.21588e-05	629
6290	0.299866	6305.78	2.25891e-05	630
6300	0.299957	6315.78	2.21588e-05	631
6310	0.299896	6325.78	2.23999e-05	632
6320	0.299866	6335.78	2.24243e-05	633
6330	0.299957	6345.78	2.24579e-05	634
6340	0.299927	6355.78	2.23053e-05	635
6350	0.299927	6365.78	2.2345e-05	636
6360	0.299896	6375.78	2.22565e-05	637
6370	0.299896	6385.78	2.25067e-05	638
6380	0.299988	6395.78	2.24243e-05	639
6390	0.299927	6405.78	2.21558e-05	640
6400	0.300049	6415.78	2.20581e-05	641
6410	0.299988	6425.78	2.22626e-05	642
6420	0.299896	6435.78	2.21802e-05	643
6430	0.299896	6445.78	2.23785e-05	644
6440	0.299988	6455.78	2.21222e-05	645
6450	0.299866	6465.78	2.25433e-05	646
6460	0.299866	6475.78	2.23297e-05	647
6470	0.299835	6485.78	2.20428e-05	648
6480	0.299866	6495.78	2.25067e-05	649
6490	0.299927	6505.78	2.21649e-05	650
6500	0.299927	6515.78	2.20642e-05	651
6510	0.299927	6525.78	2.22137e-05	652
6520	0.299927	6535.78	2.17468e-05	653
6530	0.299988	6545.78	2.21497e-05	654
6540	0.299988	6555.78	2.18536e-05	655
6550	0.300018	6565.78	2.18933e-05	656
6560	0.300018	6575.78	2.17773e-05	657
6570	0.300018	6585.78	2.18475e-05	658
6580	0.300018	6595.78	2.18048e-05	659
6590	0.299988	6605.78	2.19788e-05	660
6600	0.299988	6615.78	2.17255e-05	661
6610	0.299988	6625.78	2.18597e-05	662
6620	0.300049	6635.78	2.14874e-05	663
6630	0.299927	6645.78	2.1933e-05	664
6640	0.300018	6655.78	2.17285e-05	665
6650	0.299957	6665.78	2.16034e-05	666
6660	0.299988	6675.78	2.15973e-05	667
6670	0.299896	6685.78	2.14172e-05	668
6680	0.299957	6695.78	2.13837e-05	669
6690	0.299927	6705.78	2.16309e-05	670
6700	0.299896	6715.78	2.14508e-05	671
6710	0.299957	6725.78	2.12189e-05	672
6720	0.299896	6735.78	2.14417e-05	673
6730	0.299927	6745.78	2.16431e-05	674
6740	0.299927	6755.78	2.10999e-05	675
6750	0.299957	6765.78	2.1402e-05	676
6760	0.299866	6775.78	2.14386e-05	677
6770	0.299866	6785.78	2.13379e-05	678
6780	0.299957	6795.78	2.10693e-05	679
6790	0.300018	6805.78	2.11182e-05	680
6800	0.299988	6815.78	2.12677e-05	681
6810	0.299988	6825.78	2.14844e-05	682
6820	0.299927	6835.78	2.09381e-05	683
6830	0.299835	6845.78	2.12952e-05	684
6840	0.299927	6855.78	2.07794e-05	685
6850	0.299957	6865.78	2.09656e-05	686
6860	0.299988	6875.78	2.09412e-05	687
6870	0.300018	6885.78	2.0639e-05	688
6880	0.300049	6895.78	2.08466e-05	689
6890	0.300079	6905.78	2.06818e-05	690
6900	0.300018	6915.78	2.10297e-05	691
6910	0.299988	6925.78	2.07397e-05	692
6920	0.299957	6935.78	2.06482e-05	693
6930	0.300018	6945.78	2.0697e-05	694
6940	0.299988	6955.78	2.0401e-05	695
6950	0.300018	6965.78	2.07123e-05	696
6960	0.300018	6975.78	2.05231e-05	697
6970	0.299988	6985.78	2.07153e-05	698
6980	0.299896	6995.78	2.04254e-05	699
6990	0.299896	7005.78	2.01843e-05	700
7000	0.300079	7015.78	2.03217e-05	701
7010	0.299988	7025.78	2.04895e-05	702
7020	0.299957	7035.78	2.0575e-05	703
7030	0.299835	7045.78	2.07031e-05	704
7040	0.299927	7055.78	2.03491e-05	705
7050	0.30011	7065.78	2.00745e-05	706
7060	0.300018	7075.78	2.00714e-05	707
7070	0.299927	7085.78	1.987e-05	708
7080	0.299896	7095.78	1.97876e-05	709
7090	0.299835	7105.78	2.00867e-05	710
7100	0.299957	7115.78	2.00195e-05	711
7110	0.300079	7125.78	1.95068e-05	712
7120	0.300079	7135.78	1.98578e-05	713
7130	0.300079	7145.78	2.00226e-05	714
7140	0.300049	7155.78	1.98547e-05	715
7150	0.299957	7165.78	1.95557e-05	716
7160	0.299988	7175.78	1.9986e-05	717
7170	0.299896	7185.78	1.9516e-05	718
7180	0.299896	7195.78	1.92993e-05	719
7190	0.299957	7205.78	1.9577e-05	720
7200	0.300018	7215.78	1.9458e-05	721
7210	0.299988	7225.78	1.94275e-05	722
7220	0.299927	7235.78	1.9278e-05	723
7230	0.299927	7245.78	1.93207e-05	724
7240	0.299957	7255.78	1.91284e-05	725
7250	0.300018	7265.78	1.94458e-05	726
7260	0.300018	7275.78	1.93695e-05	727
7270	0.299927	7285.78	1.93115e-05	728
7280	0.300018	7295.78	1.90918e-05	729
7290	0.300049	7305.78	1.91284e-05	730
7300	0.300018	7315.78	1.9101e-05	731
7310	0.299957	7325.78	1.8869e-05	732
7320	0.299957	7335.78	1.89056e-05	733
7330	0.299957	7345.78	1.88354e-05	734
7340	0.299866	7355.78	1.88293e-05	735
7350	0.299896	7365.78	1.88232e-05	736
7360	0.299957	7375.78	1.88995e-05	737
7370	0.299896	7385.78	1.91467e-05	738
7380	0.299927	7395.78	1.88446e-05	739
7390	0.300018	7405.78	1.88385e-05	740
7400	0.300018	7415.78	1.87378e-05	741
7410	0.299957	7425.78	1.88019e-05	742
7420	0.299927	7435.78	1.89362e-05	743
7430	0.299927	7445.78	1.89514e-05	744
7440	0.299927	7455.78	1.86554e-05	745
7450	0.299866	7465.78	1.86371e-05	746
7460	0.299896	7475.78	1.86005e-05	747
7470	0.299927	7485.78	1.87195e-05	748
7480	0.299927	7495.78	1.87195e-05	749
7490	0.299927	7505.78	1.87958e-05	750
7500	0.299927	7515.78	1.86646e-05	751
7510	0.299988	7525.78	1.89545e-05	752
7520	0.299957	7535.78	1.8457e-05	753
7530	0.300018	7545.78	1.85608e-05	754
7540	0.300018	7555.78	1.84601e-05	755
7550	0.299988	7565.78	1.83624e-05	756
7560	0.299957	7575.78	1.82892e-05	757
7570	0.299957	7585.78	1.85181e-05	758
7580	0.299896	7595.78	1.82648e-05	759
7590	0.299896	7605.78	1.82068e-05	760
7600	0.300018	7615.78	1.8576e-05	761
7610	0.300049	7625.78	1.78619e-05	762
7620	0.300049	7635.78	1.80634e-05	763
7630	0.300018	7645.78	1.79993e-05	764
7640	0.299957	7655.78	1.78894e-05	765
7650	0.299957	7665.78	1.80511e-05	766
7660	0.299988	7675.78	1.78253e-05	767
7670	0.299957	7685.78	1.8045e-05	768
7680	0.300049	7695.78	1.77277e-05	769
7690	0.299988	7705.78	1.75415e-05	770
7700	0.300079	7715.78	1.79169e-05	771
7710	0.300049	7725.78	1.77887e-05	772
7720	0.299988	7735.78	1.77063e-05	773
7730	0.299896	7745.78	1.73767e-05	774
7740	0.299927	7755.78	1.75568e-05	775
7750	0.300018	7765.78	1.75018e-05	776
7760	0.300018	7775.78	1.74408e-05	777
7770	0.300049	7785.78	1.73706e-05	778
7780	0.300018	7795.78	1.73553e-05	779
7790	0.299927	7805.78	1.75171e-05	780
7800	0.299896	7815.78	1.74347e-05	781
7810	0.299957	7825.78	1.70776e-05	782
7820	0.299988	7835.78	1.7157e-05	783
7830	0.299988	7845.78	1.71997e-05	784
7840	0.300049	7855.78	1.71539e-05	785
7850	0.300079	7865.78	1.70593e-05	786
7860	0.300018	7875.78	1.71265e-05	787
7870	0.299988	7885.78	1.69403e-05	788
7880	0.299805	7895.78	1.71478e-05	789
7890	0.299957	7905.78	1.72699e-05	790
7900	0.300049	7915.78	1.68854e-05	791
7910	0.299988	7925.78	1.698e-05	792
7920	0.299988	7935.78	1.74469e-05	793
7930	0.299896	7945.78	1.78925e-05	794
7940	0.299896	7955.78	1.87775e-05	795
7950	0.299927	7965.78	1.93176e-05	796
7960	0.299927	7975.78	1.93787e-05	797
7970	0.299927	7985.78	1.91437e-05	798
7980	0.299927	7995.78	1.92108e-05	799
7990	0.299988	8005.78	1.87805e-05	800
8000	0.300018	8015.78	1.90674e-05	801
8010	0.300049	8025.78	1.8811e-05	802
8020	0.300018	8035.78	1.87134e-05	803
8030	0.300018	8045.78	1.8512e-05	804
8040	0.299927	8055.78	1.84235e-05	805
8050	0.299805	8065.78	1.83289e-05	806
8060	0.299988	8075.78	1.82037e-05	807
8070	0.300018	8085.78	1.85608e-05	808
8080	0.300049	8095.78	1.82281e-05	809
8090	0.300049	8105.78	1.8042e-05	810
8100	0.30011	8115.78	1.81702e-05	811
8110	0.299988	8125.78	1.81854e-05	812
8120	0.300018	8135.78	1.81366e-05	813