File: ELECTROCHEM_DATA/18.02.2022 ПК208 ClO4 1e-4 M TBABF4 0,1 M MeCN 1 mm anode 0,8 V/CA
Corrected time (s)	WE(1).Current (A)	Time (s)	WE(1).Potential (V)	Index
0	0.000713501	15.7952	0.799866	1
10	0.000706177	25.7952	0.800171	2
20	0.00059082	35.7952	0.799561	3
30	0.000562744	45.7952	0.799866	4
40	0.000562439	55.7952	0.79895	5
50	0.000616455	65.7952	0.800476	6
60	0.000502319	75.7952	0.799866	7
70	0.000558472	85.7952	0.798645	8
80	0.000555115	95.7952	0.799561	9
90	0.000514832	105.795	0.798645	10
100	0.000472504	115.795	0.799561	11
110	0.000535583	125.795	0.79895	12
120	0.000520935	135.795	0.799561	13
130	0.000469025	145.795	0.800171	14
140	0.000447784	155.795	0.799866	15
150	0.000437469	165.795	0.799255	16
160	0.000425995	175.795	0.799255	17
170	0.000450623	185.795	0.799866	18
180	0.00044635	195.795	0.800781	19
190	0.000391113	205.795	0.799866	20
200	0.000409332	215.795	0.79895	21
210	0.000424408	225.795	0.79895	22
220	0.000379547	235.795	0.799255	23
230	0.000396851	245.795	0.799255	24
240	0.000338898	255.795	0.800171	25
250	0.0003797	265.795	0.799255	26
260	0.000342041	275.795	0.799255	27
270	0.000373962	285.795	0.799866	28
280	0.000331848	295.795	0.799255	29
290	0.000311279	305.795	0.799255	30
300	0.000306641	315.795	0.799561	31
310	0.000246948	325.795	0.800476	32
320	0.000333954	335.795	0.799255	33
330	0.000302032	345.795	0.799866	34
340	0.000296661	355.795	0.799561	35
350	0.000284119	365.795	0.799866	36
360	0.000291046	375.795	0.799866	37
370	0.000283783	385.795	0.800171	38
380	0.000265137	395.795	0.800171	39
390	0.000258728	405.795	0.799866	40
400	0.000243744	415.795	0.799561	41
410	0.00024173	425.795	0.799561	42
420	0.000236389	435.795	0.799866	43
430	0.000237366	445.795	0.799255	44
440	0.000258453	455.795	0.800171	45
450	0.000235229	465.795	0.799866	46
460	0.000213806	475.795	0.799255	47
470	0.000200165	485.795	0.799866	48
480	0.000184113	495.795	0.800171	49
490	0.000192657	505.795	0.799255	50
500	0.000195129	515.795	0.799255	51
510	0.000191193	525.795	0.799255	52
520	0.000213379	535.795	0.800171	53
530	0.000175385	545.795	0.799255	54
540	0.000168884	555.795	0.799561	55
550	0.000180542	565.795	0.799866	56
560	0.000185699	575.795	0.800476	57
570	0.000163361	585.795	0.799561	58
580	0.000164398	595.795	0.801086	59
590	0.000149933	605.795	0.799561	60
600	0.000157532	615.795	0.79895	61
610	0.000140045	625.795	0.79895	62
620	0.000144714	635.795	0.799866	63
630	0.000134247	645.795	0.799561	64
640	0.000131805	655.795	0.79895	65
650	0.000131317	665.795	0.799561	66
660	0.000126434	675.795	0.799561	67
670	0.000123718	685.795	0.799561	68
680	0.000118286	695.795	0.799255	69
690	0.000112457	705.795	0.799561	70
700	0.000125183	715.795	0.799561	71
710	0.000114014	725.795	0.799561	72
720	0.000105255	735.795	0.799561	73
730	0.000114105	745.795	0.799866	74
740	0.00011618	755.795	0.800171	75
750	9.96704e-05	765.795	0.799866	76
760	0.000105896	775.795	0.799866	77
770	0.00010321	785.795	0.799561	78
780	9.65576e-05	795.795	0.79895	79
790	9.40552e-05	805.795	0.799255	80
800	8.5022e-05	815.795	0.799866	81
810	9.33838e-05	825.795	0.800171	82
820	9.57336e-05	835.795	0.799255	83
830	8.71887e-05	845.795	0.799561	84
840	7.88574e-05	855.795	0.800171	85
850	7.98035e-05	865.795	0.799866	86
860	8.02612e-05	875.795	0.799561	87
870	7.45544e-05	885.795	0.799561	88
880	7.24182e-05	895.795	0.799255	89
890	7.44934e-05	905.795	0.79895	90
900	7.09534e-05	915.795	0.79895	91
910	7.16553e-05	925.795	0.799255	92
920	7.56531e-05	935.795	0.79895	93
930	6.47583e-05	945.795	0.799866	94
940	6.41174e-05	955.795	0.799866	95
950	6.65283e-05	965.795	0.799561	96
960	6.27441e-05	975.795	0.800476	97
970	6.29578e-05	985.795	0.800476	98
980	5.92346e-05	995.795	0.799255	99
990	5.43518e-05	1005.8	0.799255	100
1000	5.0415e-05	1015.8	0.799561	101
1010	5.91736e-05	1025.8	0.799866	102
1020	5.33447e-05	1035.8	0.799561	103
1030	5.49622e-05	1045.8	0.79895	104
1040	5.7373e-05	1055.8	0.799561	105
1050	5.23376e-05	1065.8	0.79895	106
1060	4.84009e-05	1075.8	0.799561	107
1070	4.97437e-05	1085.8	0.799255	108
1080	4.28192e-05	1095.8	0.799561	109
1090	4.70276e-05	1105.8	0.799561	110
1100	4.41895e-05	1115.8	0.799255	111
1110	4.46716e-05	1125.8	0.799866	112
1120	4.38782e-05	1135.8	0.799866	113
1130	4.13086e-05	1145.8	0.800476	114
1140	4.51447e-05	1155.8	0.799866	115
1150	4.11621e-05	1165.8	0.800171	116
1160	4.08661e-05	1175.8	0.799866	117
1170	4.45343e-05	1185.8	0.800476	118
1180	4.04633e-05	1195.8	0.799561	119
1190	4.24622e-05	1205.8	0.799561	120
1200	3.91876e-05	1215.8	0.798645	121
1210	3.95996e-05	1225.8	0.799561	122
1220	3.82019e-05	1235.8	0.799255	123
1230	3.89496e-05	1245.8	0.799255	124
1240	4.11804e-05	1255.8	0.799561	125
1250	3.66455e-05	1265.8	0.799561	126
1260	3.74084e-05	1275.8	0.800781	127
1270	3.1134e-05	1285.8	0.799866	128
1280	3.8678e-05	1295.8	0.799255	129
1290	3.67798e-05	1305.8	0.799255	130
1300	3.63342e-05	1315.8	0.799561	131
1310	3.68103e-05	1325.8	0.799866	132
1320	3.37494e-05	1335.8	0.799561	133
1330	3.18207e-05	1345.8	0.79895	134
1340	3.56659e-05	1355.8	0.799866	135
1350	3.31665e-05	1365.8	0.800171	136
1360	3.63708e-05	1375.8	0.799866	137
1370	3.11127e-05	1385.8	0.800171	138
1380	3.10608e-05	1395.8	0.799866	139
1390	3.17993e-05	1405.8	0.799255	140
1400	3.17139e-05	1415.8	0.799561	141
1410	3.02551e-05	1425.8	0.799255	142
1420	3.04779e-05	1435.8	0.799255	143
1430	3.11829e-05	1445.8	0.800171	144
1440	3.07159e-05	1455.8	0.800171	145
1450	3.26172e-05	1465.8	0.799866	146
1460	2.95776e-05	1475.8	0.79895	147
1470	2.70966e-05	1485.8	0.79895	148
1480	3.07983e-05	1495.8	0.79895	149
1490	3.07495e-05	1505.8	0.799866	150
1500	3.00507e-05	1515.8	0.800171	151
1510	2.98553e-05	1525.8	0.799866	152
1520	2.77039e-05	1535.8	0.800476	153
1530	2.79419e-05	1545.8	0.800476	154
1540	2.95105e-05	1555.8	0.799866	155
1550	2.9245e-05	1565.8	0.799255	156
1560	2.80914e-05	1575.8	0.79834	157
1570	2.7887e-05	1585.8	0.799561	158
1580	2.64923e-05	1595.8	0.79895	159
1590	2.71423e-05	1605.8	0.799866	160
1600	2.89917e-05	1615.8	0.79895	161
1610	2.82837e-05	1625.8	0.798645	162
1620	2.66541e-05	1635.8	0.798645	163
1630	2.71545e-05	1645.8	0.799255	164
1640	2.47406e-05	1655.8	0.79895	165
1650	2.57019e-05	1665.8	0.799561	166
1660	2.55646e-05	1675.8	0.79895	167
1670	2.6004e-05	1685.8	0.799255	168
1680	2.73834e-05	1695.8	0.799561	169
1690	2.5943e-05	1705.8	0.799561	170
1700	2.67456e-05	1715.8	0.799561	171
1710	2.59277e-05	1725.8	0.799866	172
1720	2.48596e-05	1735.8	0.799561	173
1730	2.47223e-05	1745.8	0.799866	174
1740	2.47253e-05	1755.8	0.79895	175
1750	2.39471e-05	1765.8	0.799255	176
1760	2.47375e-05	1775.8	0.799255	177
1770	2.58057e-05	1785.8	0.799255	178
1780	2.36237e-05	1795.8	0.799255	179
1790	2.48047e-05	1805.8	0.79895	180
1800	2.39563e-05	1815.8	0.799255	181
1810	2.45483e-05	1825.8	0.799255	182
1820	2.42859e-05	1835.8	0.799255	183
1830	2.39288e-05	1845.8	0.79895	184
1840	2.36053e-05	1855.8	0.799561	185
1850	2.36816e-05	1865.8	0.79834	186
1860	2.28363e-05	1875.8	0.79834	187
1870	2.4231e-05	1885.8	0.799255	188
1880	2.43439e-05	1895.8	0.799866	189
1890	2.53357e-05	1905.8	0.799866	190
1900	2.33917e-05	1915.8	0.800171	191
1910	2.31384e-05	1925.8	0.800476	192
1920	2.1579e-05	1935.8	0.799561	193
1930	2.40662e-05	1945.8	0.800476	194
1940	2.2821e-05	1955.8	0.799866	195
1950	2.29431e-05	1965.8	0.799255	196
1960	2.19025e-05	1975.8	0.800171	197
1970	2.38373e-05	1985.8	0.800171	198
1980	2.23328e-05	1995.8	0.800171	199
1990	2.21069e-05	2005.8	0.799866	200
2000	2.25555e-05	2015.8	0.79895	201
2010	2.35779e-05	2025.8	0.799255	202
2020	2.11792e-05	2035.8	0.79895	203
2030	2.09564e-05	2045.8	0.799255	204
2040	2.1875E-05	2055.8	0.799561	205
2050	2.16461e-05	2065.8	0.800476	206
2060	2.15607e-05	2075.8	0.799866	207
2070	2.07001e-05	2085.8	0.800171	208
2080	2.17712e-05	2095.8	0.799866	209
2090	2.03827e-05	2105.8	0.799866	210
2100	2.19025e-05	2115.8	0.799561	211
2110	2.3764e-05	2125.8	0.79895	212
2120	2.21283e-05	2135.8	0.799866	213
2130	2.17194e-05	2145.8	0.800171	214
2140	2.29126e-05	2155.8	0.800476	215
2150	2.34375E-05	2165.8	0.799866	216
2160	2.31934e-05	2175.8	0.799255	217
2170	2.09412e-05	2185.8	0.800476	218
2180	2.03003e-05	2195.8	0.799561	219
2190	2.26807e-05	2205.8	0.799866	220
2200	2.18964e-05	2215.8	0.799866	221
2210	2.1106e-05	2225.8	0.799866	222
2220	2.005e-05	2235.8	0.799866	223
2230	2.18933e-05	2245.8	0.799255	224
2240	2.15637e-05	2255.8	0.799561	225
2250	2.1463e-05	2265.8	0.798645	226
2260	2.02362e-05	2275.8	0.799561	227
2270	2.07428e-05	2285.8	0.798645	228
2280	2.18292e-05	2295.8	0.799561	229
2290	2.03796e-05	2305.8	0.800171	230
2300	2.15515e-05	2315.8	0.79895	231
2310	2.13806e-05	2325.8	0.800171	232
2320	1.96442e-05	2335.8	0.800171	233
2330	2.01477e-05	2345.8	0.800781	234
2340	2.06329e-05	2355.8	0.800171	235
2350	2.10358e-05	2365.8	0.799866	236
2360	2.18292e-05	2375.8	0.799866	237
2370	1.93359e-05	2385.8	0.799255	238
2380	2.06116e-05	2395.8	0.800476	239
2390	2.11334e-05	2405.8	0.799561	240
2400	2.12311e-05	2415.8	0.800171	241
2410	1.99585e-05	2425.8	0.799255	242
2420	1.96808e-05	2435.8	0.799866	243
2430	1.91467e-05	2445.8	0.79895	244
2440	2.23724e-05	2455.8	0.79895	245
2450	1.99158e-05	2465.8	0.799561	246
2460	2.06879e-05	2475.8	0.800171	247
2470	1.96014e-05	2485.8	0.79895	248
2480	2.14874e-05	2495.8	0.799255	249
2490	2.13867e-05	2505.8	0.799561	250
2500	1.93054e-05	2515.8	0.800171	251
2510	2.03094e-05	2525.8	0.799255	252
2520	2.00928e-05	2535.8	0.799561	253
2530	1.91986e-05	2545.8	0.799561	254
2540	1.87775e-05	2555.8	0.799866	255
2550	2.06268e-05	2565.8	0.800476	256
2560	1.88934e-05	2575.8	0.800171	257
2570	1.98761e-05	2585.8	0.800171	258
2580	1.98364e-05	2595.8	0.799255	259
2590	2.0047e-05	2605.8	0.799255	260
2600	2.14661e-05	2615.8	0.798645	261
2610	1.99249e-05	2625.8	0.799255	262
2620	1.9989e-05	2635.8	0.79895	263
2630	2.1814e-05	2645.8	0.79895	264
2640	1.86798e-05	2655.8	0.799561	265
2650	1.9104e-05	2665.8	0.79895	266
2660	1.72211e-05	2675.8	0.800171	267
2670	1.90643e-05	2685.8	0.799866	268
2680	1.85974e-05	2695.8	0.799561	269
2690	1.54205e-05	2705.8	0.799255	270
2700	1.9043e-05	2715.8	0.799255	271
2710	2.04407e-05	2725.8	0.799561	272
2720	1.79779e-05	2735.8	0.79895	273
2730	1.93512e-05	2745.8	0.79895	274
2740	2.15179e-05	2755.8	0.79895	275
2750	1.82953e-05	2765.8	0.79895	276
2760	1.83105e-05	2775.8	0.799561	277
2770	1.99371e-05	2785.8	0.799866	278
2780	2.00256e-05	2795.8	0.799561	279
2790	1.90887e-05	2805.8	0.799866	280
2800	1.93054e-05	2815.8	0.79895	281
2810	1.85059e-05	2825.8	0.799561	282
2820	1.77551e-05	2835.8	0.799255	283
2830	2.03308e-05	2845.8	0.799561	284
2840	1.79749e-05	2855.8	0.799255	285
2850	1.85211e-05	2865.8	0.79895	286
2860	1.93329e-05	2875.8	0.79895	287
2870	1.8454e-05	2885.8	0.800476	288
2880	2.00226e-05	2895.8	0.800171	289
2890	1.79169e-05	2905.8	0.800171	290
2900	1.85547e-05	2915.8	0.801086	291
2910	1.78894e-05	2925.8	0.799561	292
2920	1.82556e-05	2935.8	0.799561	293
2930	1.75171e-05	2945.8	0.79895	294
2940	1.81122e-05	2955.8	0.798645	295
2950	1.7984e-05	2965.8	0.800171	296
2960	1.79047e-05	2975.8	0.798645	297
2970	1.9751e-05	2985.8	0.798645	298
2980	1.92749e-05	2995.8	0.79895	299
2990	1.86371e-05	3005.8	0.79895	300
3000	1.94824e-05	3015.8	0.799255	301
3010	1.87561e-05	3025.8	0.798645	302
3020	1.77124e-05	3035.8	0.79895	303
3030	1.70013e-05	3045.8	0.798645	304
3040	1.82251e-05	3055.8	0.799255	305
3050	1.77917e-05	3065.8	0.798645	306
3060	1.78497e-05	3075.8	0.79895	307
3070	1.93604e-05	3085.8	0.799561	308
3080	2.00806e-05	3095.8	0.799561	309
3090	1.77917e-05	3105.8	0.799561	310
3100	1.78772e-05	3115.8	0.800781	311
3110	1.73248e-05	3125.8	0.800476	312
3120	1.96594e-05	3135.8	0.800476	313
3130	1.86646e-05	3145.8	0.799866	314
3140	1.94794e-05	3155.8	0.799561	315
3150	2.04681e-05	3165.8	0.79895	316
3160	7.51038e-06	3175.8	0.798645	317
3170	5.7373e-06	3185.8	0.79895	318
3180	5.94177e-06	3195.8	0.798645	319
3190	6.54907e-06	3205.8	0.799561	320
3200	5.93262e-06	3215.8	0.799866	321
3210	5.52368e-06	3225.8	0.799561	322
3220	6.48499e-06	3235.8	0.800171	323
3230	5.41382e-06	3245.8	0.800476	324
3240	6.47278e-06	3255.8	0.800476	325
3250	1.95892e-05	3265.8	0.801086	326
3260	2.12372e-05	3275.8	0.799866	327
3270	2.09106e-05	3285.8	0.800171	328
3280	2.09625e-05	3295.8	0.799255	329
3290	2.08252e-05	3305.8	0.798645	330
3300	1.99432e-05	3315.8	0.799255	331
3310	1.82587e-05	3325.8	0.800171	332
3320	1.8219e-05	3335.8	0.799866	333
3330	1.97876e-05	3345.8	0.799561	334
3340	2.01263e-05	3355.8	0.799866	335
3350	1.81824e-05	3365.8	0.798645	336
3360	1.88446e-05	3375.8	0.799255	337
3370	2.06421e-05	3385.8	0.79895	338
3380	2.13959e-05	3395.8	0.799561	339
3390	2.14325e-05	3405.8	0.799866	340
3400	1.94244e-05	3415.8	0.800476	341
3410	2.16339e-05	3425.8	0.799866	342
3420	1.8869e-05	3435.8	0.799255	343
3430	1.86829e-05	3445.8	0.799561	344
3440	1.85638e-05	3455.8	0.799561	345
3450	1.84235e-05	3465.8	0.79895	346
3460	1.99707e-05	3475.8	0.798645	347
3470	2.0932e-05	3485.8	0.798645	348
3480	1.85638e-05	3495.8	0.79895	349
3490	1.80176e-05	3505.8	0.79895	350
3500	1.82678e-05	3515.8	0.799255	351
3510	1.86707e-05	3525.8	0.799255	352
3520	2.04498e-05	3535.8	0.798645	353
3530	1.92749e-05	3545.8	0.798645	354
3540	1.73981e-05	3555.8	0.799255	355
3550	1.96136e-05	3565.8	0.799255	356
3560	1.80328e-05	3575.8	0.79834	357
3570	1.89423e-05	3585.8	0.799255	358
3580	1.98181e-05	3595.8	0.798645	359
3590	1.55609e-05	3605.8	0.799561	360
3600	1.73248e-05	3615.8	0.799561	361
3610	1.72272e-05	3625.8	0.799561	362
3620	1.90399e-05	3635.8	0.800476	363
3630	1.75446e-05	3645.8	0.799866	364
3640	1.62323e-05	3655.8	0.799561	365
3650	1.91925e-05	3665.8	0.799255	366
3660	1.80664e-05	3675.8	0.799255	367
3670	1.69861e-05	3685.8	0.799255	368
3680	1.66595e-05	3695.8	0.799561	369
3690	1.81763e-05	3705.8	0.799255	370
3700	1.71204e-05	3715.8	0.799561	371
3710	1.85425e-05	3725.8	0.800476	372
3720	1.74652e-05	3735.8	0.799255	373
3730	1.63605e-05	3745.8	0.799561	374
3740	1.60278e-05	3755.8	0.79895	375
3750	1.67328e-05	3765.8	0.800476	376
3760	1.6864e-05	3775.8	0.800171	377
3770	1.66016e-05	3785.8	0.799561	378
3780	1.61835e-05	3795.8	0.801086	379
3790	1.60126e-05	3805.8	0.799561	380
3800	1.43738e-05	3815.8	0.799561	381
3810	1.60919e-05	3825.8	0.799866	382
3820	1.73584e-05	3835.8	0.799561	383
3830	1.7984e-05	3845.8	0.799255	384
3840	1.40533e-05	3855.8	0.79895	385
3850	1.68579e-05	3865.8	0.799561	386
3860	1.90277e-05	3875.8	0.800171	387
3870	1.68365e-05	3885.8	0.800171	388
3880	1.70044e-05	3895.8	0.79834	389
3890	1.61194e-05	3905.8	0.799561	390
3900	1.85852e-05	3915.8	0.799561	391
3910	1.74011e-05	3925.8	0.799561	392
3920	1.8158e-05	3935.8	0.800781	393
3930	1.81824e-05	3945.8	0.799866	394
3940	1.82983e-05	3955.8	0.800781	395
3950	1.86646e-05	3965.8	0.799255	396
3960	1.63452e-05	3975.8	0.798645	397
3970	1.53961e-05	3985.8	0.799255	398
3980	1.61682e-05	3995.8	0.799561	399
3990	1.60919e-05	4005.8	0.798645	400
4000	1.49872e-05	4015.8	0.79895	401
4010	1.73096e-05	4025.8	0.79895	402
4020	1.54358e-05	4035.8	0.800476	403
4030	1.82709e-05	4045.8	0.799866	404
4040	1.75751e-05	4055.8	0.800476	405
4050	1.60004e-05	4065.8	0.799866	406
4060	1.48834e-05	4075.8	0.799866	407
4070	1.64978e-05	4085.8	0.799561	408
4080	1.72516e-05	4095.8	0.799561	409
4090	1.69678e-05	4105.8	0.800476	410
4100	1.57684e-05	4115.8	0.800476	411
4110	1.52588e-05	4125.8	0.799866	412
4120	1.49475e-05	4135.8	0.799866	413
4130	1.56097e-05	4145.8	0.799255	414
4140	1.59515e-05	4155.8	0.79895	415
4150	1.5567e-05	4165.8	0.79895	416
4160	1.51855e-05	4175.8	0.79895	417
4170	1.44684e-05	4185.8	0.799866	418
4180	1.41846e-05	4195.8	0.799866	419
4190	1.61774e-05	4205.8	0.799866	420
4200	1.59393e-05	4215.8	0.799866	421
4210	1.4621e-05	4225.8	0.799866	422
4220	1.51154e-05	4235.8	0.800171	423
4230	1.474e-05	4245.8	0.800476	424
4240	1.65344e-05	4255.8	0.800171	425
4250	1.54388e-05	4265.8	0.800476	426
4260	1.5921e-05	4275.8	0.799866	427
4270	1.50574e-05	4285.8	0.800171	428
4280	1.50238e-05	4295.8	0.798645	429
4290	1.62048e-05	4305.8	0.799561	430
4300	1.35132e-05	4315.8	0.799561	431
4310	8.78906e-06	4325.8	0.800476	432
4320	9.43298e-06	4335.8	0.800171	433
4330	1.31165e-05	4345.8	0.799866	434
4340	1.30981e-05	4355.8	0.799561	435
4350	1.54358e-05	4365.8	0.799561	436
4360	1.5329e-05	4375.8	0.800171	437
4370	1.62262e-05	4385.8	0.799866	438
4380	1.5033e-05	4395.8	0.800171	439
4390	1.42944e-05	4405.8	0.801086	440
4400	1.53412e-05	4415.8	0.799866	441
4410	1.59119e-05	4425.8	0.801086	442
4420	1.49384e-05	4435.8	0.800476	443
4430	1.6037e-05	4445.8	0.799866	444
4440	1.50879e-05	4455.8	0.799561	445
4450	1.4682e-05	4465.8	0.798645	446
4460	1.42487e-05	4475.8	0.798645	447
4470	1.46667e-05	4485.8	0.799561	448
4480	1.54297e-05	4495.8	0.799255	449
4490	1.52893e-05	4505.8	0.79895	450
4500	1.36963e-05	4515.8	0.799255	451
4510	1.44562e-05	4525.8	0.799561	452
4520	1.53564e-05	4535.8	0.799561	453
4530	1.46057e-05	4545.8	0.799866	454
4540	1.44257e-05	4555.8	0.799866	455
4550	1.50513e-05	4565.8	0.799561	456
4560	1.51215e-05	4575.8	0.799561	457
4570	1.43555e-05	4585.8	0.799255	458
4580	1.5274e-05	4595.8	0.799866	459
4590	1.53961e-05	4605.8	0.800781	460
4600	1.47949e-05	4615.8	0.799866	461
4610	1.43616e-05	4625.8	0.799561	462
4620	1.41235e-05	4635.8	0.799561	463
4630	1.25336e-05	4645.8	0.800171	464
4640	1.48346e-05	4655.8	0.799255	465
4650	1.41266e-05	4665.8	0.800171	466
4660	1.37878e-05	4675.8	0.799255	467
4670	1.67816e-05	4685.8	0.799866	468
4680	1.51978e-05	4695.8	0.800476	469
4690	1.4212e-05	4705.8	0.799561	470
4700	1.57379e-05	4715.8	0.800476	471
4710	1.33331e-05	4725.8	0.800171	472
4720	1.73462e-05	4735.8	0.799866	473
4730	2.48444e-05	4745.8	0.799561	474
4740	3.45642e-05	4755.8	0.799255	475
4750	4.24591e-05	4765.8	0.799255	476
4760	4.67834e-05	4775.8	0.799255	477
4770	4.26331e-05	4785.8	0.799255	478
4780	4.34082e-05	4795.8	0.799561	479
4790	4.63562e-05	4805.8	0.799561	480
4800	4.18427e-05	4815.8	0.799561	481
4810	3.42224e-05	4825.8	0.799255	482
4820	4.13727e-05	4835.8	0.799561	483
4830	4.26636e-05	4845.8	0.799561	484
4840	3.58459e-05	4855.8	0.800781	485
4850	4.19678e-05	4865.8	0.800171	486
4860	3.87543e-05	4875.8	0.799561	487
4870	3.98346e-05	4885.8	0.799561	488
4880	3.73077e-05	4895.8	0.800171	489
4890	3.63708e-05	4905.8	0.800476	490
4900	3.81744e-05	4915.8	0.800171	491
4910	3.66638e-05	4925.8	0.799255	492