File: ELECTROCHEM_DATA/26.11.2021 ПК154 BF4 1e-4 M TBABF4 0,1 M MeCN 1 mm anode +0.8 V/CA.csv
Corrected time (s);WE(1).Current (A);Time (s);WE(1).Potential (V);Index
0;0.000391602;15.9802;0.799866;1
10;0.000389954;25.9802;0.799561;2
20;0.000374451;35.9802;0.799255;3
30;0.000364868;45.9802;0.800171;4
40;0.000358154;55.9802;0.799255;5
50;0.000366638;65.9802;0.799255;6
60;0.000356628;75.9802;0.799866;7
70;0.00034848;85.9802;0.799561;8
80;0.000338287;95.9802;0.799561;9
90;0.000332977;105.98;0.799561;10
100;0.000337524;115.98;0.799866;11
110;0.000332642;125.98;0.799255;12
120;0.00032663;135.98;0.799561;13
130;0.000324799;145.98;0.799255;14
140;0.000319275;155.98;0.799561;15
150;0.000316772;165.98;0.799255;16
160;0.000308136;175.98;0.799255;17
170;0.000305542;185.98;0.799255;18
180;0.000298279;195.98;0.799561;19
190;0.000301941;205.98;0.799561;20
200;0.000293335;215.98;0.799866;21
210;0.000294586;225.98;0.799255;22
220;0.000290039;235.98;0.799255;23
230;0.00027948;245.98;0.799561;24
240;0.000277496;255.98;0.799866;25
250;0.000283569;265.98;0.799255;26
260;0.000268768;275.98;0.799866;27
270;0.000268463;285.98;0.799561;28
280;0.00025943;295.98;0.799561;29
290;0.000265442;305.98;0.799255;30
300;0.000256042;315.98;0.79895;31
310;0.000261932;325.98;0.799255;32
320;0.000255096;335.98;0.799255;33
330;0.000254669;345.98;0.799255;34
340;0.000247314;355.98;0.799561;35
350;0.000244934;365.98;0.799561;36
360;0.000246674;375.98;0.799561;37
370;0.000237366;385.98;0.799866;38
380;0.000234985;395.98;0.799561;39
390;0.00023175;405.98;0.799255;40
400;0.000230652;415.98;0.799866;41
410;0.00022934;425.98;0.799255;42
420;0.000222961;435.98;0.799561;43
430;0.000223175;445.98;0.799866;44
440;0.000222992;455.98;0.799561;45
450;0.000216797;465.98;0.799866;46
460;0.000217194;475.98;0.799866;47
470;0.000212952;485.98;0.799866;48
480;0.000211945;495.98;0.799561;49
490;0.000205658;505.98;0.799255;50
500;0.000206329;515.98;0.799866;51
510;0.000207458;525.98;0.799561;52
520;0.000206024;535.98;0.799561;53
530;0.000197601;545.98;0.799866;54
540;0.000199707;555.98;0.799255;55
550;0.000192871;565.98;0.799255;56
560;0.000194855;575.98;0.79895;57
570;0.000188416;585.98;0.799561;58
580;0.000188385;595.98;0.79895;59
590;0.000184448;605.98;0.799866;60
600;0.000186188;615.98;0.799255;61
610;0.000181366;625.98;0.799255;62
620;0.00018103;635.98;0.799255;63
630;0.000178986;645.98;0.799255;64
640;0.000179108;655.98;0.799561;65
650;0.000176941;665.98;0.799866;66
660;0.000174011;675.98;0.799866;67
670;0.000171295;685.98;0.799561;68
680;0.000172394;695.98;0.79895;69
690;0.000167053;705.98;0.799255;70
700;0.000169067;715.98;0.799255;71
710;0.000164612;725.98;0.799561;72
720;0.000165314;735.98;0.799255;73
730;0.000161102;745.98;0.799561;74
740;0.000161621;755.98;0.799866;75
750;0.000162567;765.98;0.799866;76
760;0.000151978;775.98;0.799255;77
770;0.000156708;785.98;0.799255;78
780;0.000156281;795.98;0.799866;79
790;0.000156799;805.98;0.799561;80
800;0.000151703;815.98;0.799255;81
810;0.000148102;825.98;0.799255;82
820;0.000148407;835.98;0.799561;83
830;0.000146912;845.98;0.799255;84
840;0.000144501;855.98;0.799255;85
850;0.000142059;865.98;0.799866;86
860;0.000142609;875.98;0.79895;87
870;0.0001409;885.98;0.799561;88
880;0.000138916;895.98;0.799561;89
890;0.000139954;905.98;0.799255;90
900;0.000138397;915.98;0.799561;91
910;0.000135468;925.98;0.799255;92
920;0.000135925;935.98;0.79895;93
930;0.000132538;945.98;0.799255;94
940;0.000131409;955.98;0.799561;95
950;0.000129791;965.98;0.799866;96
960;0.000129364;975.98;0.799561;97
970;0.000125031;985.98;0.799561;98
980;0.000125427;995.98;0.799866;99
990;0.00012735;1005.98;0.799561;100
1000;0.000122925;1015.98;0.799561;101
1010;0.000122284;1025.98;0.799255;102
1020;0.000123413;1035.98;0.799561;103
1030;0.000120422;1045.98;0.799255;104
1040;0.000122253;1055.98;0.799255;105
1050;0.000118805;1065.98;0.799866;106
1060;0.000119141;1075.98;0.799255;107
1070;0.000120544;1085.98;0.799255;108
1080;0.000114502;1095.98;0.799866;109
1090;0.000115692;1105.98;0.79895;110
1100;0.000112244;1115.98;0.799866;111
1110;0.000113464;1125.98;0.799866;112
1120;0.000112549;1135.98;0.799255;113
1130;0.000109161;1145.98;0.799561;114
1140;0.000109528;1155.98;0.799255;115
1150;0.000110138;1165.98;0.799255;116
1160;0.000108368;1175.98;0.799255;117
1170;0.000106873;1185.98;0.799866;118
1180;0.000107269;1195.98;0.799561;119
1190;0.000106567;1205.98;0.799561;120
1200;0.000104462;1215.98;0.799561;121
1210;0.000103119;1225.98;0.799561;122
1220;0.000102051;1235.98;0.799866;123
1230;0.000105469;1245.98;0.799561;124
1240;0.000102112;1255.98;0.799561;125
1250;0.000101837;1265.98;0.799255;126
1260;0.000102203;1275.98;0.799561;127
1270;9.87854e-05;1285.98;0.799866;128
1280;9.90906e-05;1295.98;0.799561;129
1290;9.85107e-05;1305.98;0.799561;130
1300;9.86938e-05;1315.98;0.799866;131
1310;9.59778e-05;1325.98;0.799561;132
1320;9.49402e-05;1335.98;0.799561;133
1330;9.47571e-05;1345.98;0.799866;134
1340;9.37805e-05;1355.98;0.799561;135
1350;9.40857e-05;1365.98;0.799561;136
1360;9.29565e-05;1375.98;0.799866;137
1370;9.31091e-05;1385.98;0.799561;138
1380;9.31091e-05;1395.98;0.799561;139
1390;9.17358e-05;1405.98;0.799561;140
1400;8.92639e-05;1415.98;0.799255;141
1410;8.81653e-05;1425.98;0.799255;142
1420;8.9386e-05;1435.98;0.799561;143
1430;8.85925e-05;1445.98;0.799255;144
1440;8.86536e-05;1455.98;0.799561;145
1450;8.97827e-05;1465.98;0.799561;146
1460;8.73718e-05;1475.98;0.799561;147
1470;8.56628e-05;1485.98;0.799561;148
1480;8.56628e-05;1495.98;0.799866;149
1490;8.48999e-05;1505.98;0.799561;150
1500;8.63342e-05;1515.98;0.799561;151
1510;8.34656e-05;1525.98;0.799561;152
1520;8.48694e-05;1535.98;0.799866;153
1530;8.53271e-05;1545.98;0.799561;154
1540;8.35266e-05;1555.98;0.799561;155
1550;8.32214e-05;1565.98;0.799561;156
1560;8.19702e-05;1575.98;0.799561;157
1570;7.94067e-05;1585.98;0.79895;158
1580;8.203125E-05;1595.98;0.799866;159
1590;8.12073e-05;1605.98;0.799561;160
1600;7.95898e-05;1615.98;0.799255;161
1610;8.09326e-05;1625.98;0.79895;162
1620;7.94067e-05;1635.98;0.799255;163
1630;7.94373e-05;1645.98;0.799561;164
1640;7.86438e-05;1655.98;0.799255;165
1650;7.91931e-05;1665.98;0.799255;166
1660;7.8949e-05;1675.98;0.79895;167
1670;7.91931e-05;1685.98;0.799866;168
1680;7.7179e-05;1695.98;0.799561;169
1690;7.82471e-05;1705.98;0.799561;170
1700;7.66602e-05;1715.98;0.800171;171
1710;7.5592e-05;1725.98;0.799255;172
1720;7.62024e-05;1735.98;0.799561;173
1730;7.53479e-05;1745.98;0.799866;174
1740;7.6355e-05;1755.98;0.799561;175
1750;7.59888e-05;1765.98;0.799561;176
1760;7.45544e-05;1775.98;0.799866;177
1770;7.37915e-05;1785.98;0.800171;178
1780;7.40662e-05;1795.98;0.799255;179
1790;7.34863e-05;1805.98;0.799561;180
1800;7.36084e-05;1815.98;0.799561;181
1810;7.26624e-05;1825.98;0.799561;182
1820;7.13501e-05;1835.98;0.799561;183
1830;7.1991e-05;1845.98;0.800171;184
1840;7.15027e-05;1855.98;0.799866;185
1850;7.05566e-05;1865.98;0.799561;186
1860;7.15942e-05;1875.98;0.799866;187
1870;7.13501e-05;1885.98;0.800171;188
1880;7.12585e-05;1895.98;0.79895;189
1890;6.97021e-05;1905.98;0.799255;190
1900;6.90613e-05;1915.98;0.799866;191
1910;6.86035e-05;1925.98;0.799866;192
1920;6.86951e-05;1935.98;0.799561;193
1930;6.81763e-05;1945.98;0.799866;194
1940;6.84204e-05;1955.98;0.799255;195
1950;6.87561e-05;1965.98;0.800171;196
1960;6.8573e-05;1975.98;0.799561;197
1970;6.61926e-05;1985.98;0.799561;198
1980;6.81763e-05;1995.98;0.799255;199
1990;6.65894e-05;2005.98;0.799561;200
2000;6.69556e-05;2015.98;0.799866;201
2010;6.6803e-05;2025.98;0.799866;202
2020;6.58264e-05;2035.98;0.799255;203
2030;6.64978e-05;2045.98;0.799866;204
2040;6.51855e-05;2055.98;0.800171;205
2050;6.68945e-05;2065.98;0.799866;206
2060;6.62537e-05;2075.98;0.799866;207
2070;6.5979e-05;2085.98;0.799866;208
2080;6.49109e-05;2095.98;0.799561;209
2090;6.41479e-05;2105.98;0.799866;210
2100;6.46362e-05;2115.98;0.799561;211
2110;6.43921e-05;2125.98;0.799866;212
2120;6.39038e-05;2135.98;0.799866;213
2130;6.45447e-05;2145.98;0.799866;214
2140;6.42395e-05;2155.98;0.799866;215
2150;6.32019e-05;2165.98;0.799866;216
2160;6.27441e-05;2175.98;0.799561;217
2170;6.28967e-05;2185.98;0.799561;218
2180;6.32935e-05;2195.98;0.799561;219
2190;6.32324e-05;2205.98;0.799255;220
2200;6.11572e-05;2215.98;0.799866;221
2210;6.25916e-05;2225.98;0.799255;222
2220;6.03638e-05;2235.98;0.799866;223
2230;6.08215e-05;2245.98;0.799255;224
2240;6.05469e-05;2255.98;0.799561;225
2250;6.13403e-05;2265.98;0.799255;226
2260;6.11572e-05;2275.98;0.799561;227
2270;5.97229e-05;2285.98;0.799561;228
2280;5.96313e-05;2295.98;0.799866;229
2290;5.91125e-05;2305.98;0.799561;230
2300;5.87769e-05;2315.98;0.799866;231
2310;5.98755e-05;2325.98;0.799866;232
2320;5.88074e-05;2335.98;0.799561;233
2330;5.86548e-05;2345.98;0.79895;234
2340;5.85632e-05;2355.98;0.799561;235
2350;5.87463e-05;2365.98;0.799866;236
2360;5.7251e-05;2375.98;0.799561;237
2370;5.82581e-05;2385.98;0.799866;238
2380;5.66101e-05;2395.98;0.799866;239
2390;5.78003e-05;2405.98;0.800171;240
2400;5.75867e-05;2415.98;0.799866;241
2410;5.76477e-05;2425.98;0.800171;242
2420;5.61218e-05;2435.98;0.799866;243
2430;5.62134e-05;2445.98;0.799561;244
2440;5.8197e-05;2455.98;0.799561;245
2450;5.5542e-05;2465.98;0.79895;246
2460;5.55115e-05;2475.98;0.799866;247
2470;5.66406e-05;2485.98;0.799561;248
2480;5.5542e-05;2495.98;0.800171;249
2490;5.53589e-05;2505.98;0.799561;250
2500;5.4657e-05;2515.98;0.800171;251
2510;5.46875E-05;2525.98;0.799866;252
2520;5.41382e-05;2535.98;0.799561;253
2530;5.4718e-05;2545.98;0.799255;254
2540;5.41687e-05;2555.98;0.799561;255
2550;5.35583e-05;2565.98;0.799255;256
2560;5.46265e-05;2575.98;0.799866;257
2570;5.3894e-05;2585.98;0.799255;258
2580;5.31616e-05;2595.98;0.799561;259
2590;5.35889e-05;2605.98;0.799255;260
2600;5.38025e-05;2615.98;0.800171;261
2610;5.22156e-05;2625.98;0.799255;262
2620;5.38025e-05;2635.98;0.79895;263
2630;5.20935e-05;2645.98;0.799561;264
2640;5.34973e-05;2655.98;0.798645;265
2650;5.27039e-05;2665.98;0.799255;266
2660;5.13e-05;2675.98;0.800171;267
2670;5.26123e-05;2685.98;0.799866;268
2680;5.14526e-05;2695.98;0.800476;269
2690;5.30701e-05;2705.98;0.799561;270
2700;5.11169e-05;2715.98;0.799866;271
2710;5.18799e-05;2725.98;0.800171;272
2720;5.11169e-05;2735.98;0.799561;273
2730;4.96826e-05;2745.98;0.799255;274
2740;5.2124e-05;2755.98;0.799561;275
2750;5.07202e-05;2765.98;0.799561;276
2760;5.09033e-05;2775.98;0.799255;277
2770;5.08423e-05;2785.98;0.799255;278
2780;5.078125E-05;2795.98;0.79895;279
2790;4.9527e-05;2805.98;0.800171;280
2800;5.02319e-05;2815.98;0.799866;281
2810;4.89288e-05;2825.98;0.799561;282
2820;4.91241e-05;2835.98;0.79895;283
2830;4.94232e-05;2845.98;0.799561;284
2840;5.00183e-05;2855.98;0.799866;285
2850;4.9353e-05;2865.98;0.799561;286
2860;4.91211e-05;2875.98;0.799255;287
2870;4.92981e-05;2885.98;0.799561;288
2880;4.84619e-05;2895.98;0.799561;289
2890;4.89807e-05;2905.98;0.799866;290
2900;4.77844e-05;2915.98;0.799561;291
2910;4.79706e-05;2925.98;0.799866;292
2920;4.7998e-05;2935.98;0.799255;293
2930;4.70459e-05;2945.98;0.79895;294
2940;4.8996e-05;2955.98;0.799255;295
2950;4.67621e-05;2965.98;0.79895;296
2960;4.68567e-05;2975.98;0.799866;297
2970;4.64539e-05;2985.98;0.799866;298
2980;4.67804e-05;2995.98;0.79895;299
2990;4.74304e-05;3005.98;0.798645;300
3000;4.69513e-05;3015.98;0.799561;301
3010;4.7113e-05;3025.98;0.799866;302
3020;4.68109e-05;3035.98;0.799255;303
3030;4.71405e-05;3045.98;0.799866;304
3040;4.67896e-05;3055.98;0.800171;305
3050;4.63074e-05;3065.98;0.799255;306
3060;4.57733e-05;3075.98;0.799561;307
3070;4.65393e-05;3085.98;0.799866;308
3080;4.47266e-05;3095.98;0.799866;309
3090;4.58923e-05;3105.98;0.799866;310
3100;4.58466e-05;3115.98;0.799561;311
3110;4.53857e-05;3125.98;0.800171;312
3120;4.60144e-05;3135.98;0.799866;313
3130;4.55414e-05;3145.98;0.799561;314
3140;4.52271e-05;3155.98;0.799561;315
3150;4.50348e-05;3165.98;0.799255;316
3160;4.51385e-05;3175.98;0.799561;317
3170;4.47968e-05;3185.98;0.79895;318
3180;4.40002e-05;3195.98;0.799255;319
3190;4.45343e-05;3205.98;0.800171;320
3200;4.46777e-05;3215.98;0.799561;321
3210;4.31763e-05;3225.98;0.799561;322
3220;4.44794e-05;3235.98;0.799255;323
3230;4.44763e-05;3245.98;0.799561;324
3240;4.3573e-05;3255.98;0.800476;325
3250;4.4043e-05;3265.98;0.799255;326
3260;4.44275e-05;3275.98;0.799255;327
3270;4.30267e-05;3285.98;0.799561;328
3280;4.37561e-05;3295.98;0.799561;329
3290;4.49554e-05;3305.98;0.799561;330
3300;4.31305e-05;3315.98;0.799561;331
3310;4.29626e-05;3325.98;0.800171;332
3320;4.29169e-05;3335.98;0.799866;333
3330;4.26453e-05;3345.98;0.799866;334
3340;4.20135e-05;3355.98;0.799255;335
3350;4.33594e-05;3365.98;0.799561;336
3360;4.30786e-05;3375.98;0.799866;337
3370;4.30878e-05;3385.98;0.799255;338
3380;4.27948e-05;3395.98;0.799866;339
3390;4.16656e-05;3405.98;0.799561;340
3400;4.26514e-05;3415.98;0.799255;341
3410;4.15253e-05;3425.98;0.799561;342
3420;4.09027e-05;3435.98;0.799255;343
3430;4.17938e-05;3445.98;0.799866;344
3440;4.19647e-05;3455.98;0.799866;345
3450;4.15985e-05;3465.98;0.799561;346
3460;4.10583e-05;3475.98;0.799561;347
3470;4.10675e-05;3485.98;0.799255;348
3480;4.07288e-05;3495.98;0.799255;349
3490;4.22668e-05;3505.98;0.799561;350
3500;4.0451e-05;3515.98;0.799255;351
3510;4.01917e-05;3525.98;0.799255;352
3520;4.00208e-05;3535.98;0.799561;353
3530;3.94867e-05;3545.98;0.799255;354
3540;4.0033e-05;3555.98;0.799561;355
3550;4.1037e-05;3565.98;0.799866;356
3560;4.01703e-05;3575.98;0.799255;357
3570;3.99994e-05;3585.98;0.799561;358
3580;4.00024e-05;3595.98;0.799561;359
3590;3.98468e-05;3605.98;0.799561;360
3600;3.98773e-05;3615.98;0.799561;361
3610;3.95416e-05;3625.98;0.799561;362
3620;3.98651e-05;3635.98;0.799561;363
3630;3.89374e-05;3645.98;0.799255;364
3640;3.89526e-05;3655.98;0.799255;365
3650;3.94928e-05;3665.98;0.799255;366
3660;3.84155e-05;3675.98;0.799255;367
3670;3.86353e-05;3685.98;0.799866;368
3680;3.86902e-05;3695.98;0.800171;369
3690;3.86963e-05;3705.98;0.79895;370
3700;3.85376e-05;3715.98;0.799866;371
3710;3.91296e-05;3725.98;0.799255;372
3720;3.81073e-05;3735.98;0.800171;373
3730;3.79028e-05;3745.98;0.799255;374
3740;3.82721e-05;3755.98;0.799255;375
3750;3.79761e-05;3765.98;0.799255;376
3760;3.83972e-05;3775.98;0.799255;377
3770;3.77747e-05;3785.98;0.799561;378
3780;3.80005e-05;3795.98;0.800171;379
3790;3.75702e-05;3805.98;0.799561;380
3800;3.6499e-05;3815.98;0.799561;381
3810;3.73047e-05;3825.98;0.799561;382
3820;3.78876e-05;3835.98;0.799866;383
3830;3.7323e-05;3845.98;0.799866;384
3840;3.62427e-05;3855.98;0.799255;385
3850;3.74847e-05;3865.98;0.799866;386
3860;3.69843e-05;3875.98;0.800171;387
3870;3.67279e-05;3885.98;0.799561;388
3880;3.65051e-05;3895.98;0.799866;389
3890;3.67615e-05;3905.98;0.799561;390
3900;3.69202e-05;3915.98;0.79895;391
3910;3.61755e-05;3925.98;0.799866;392
3920;3.70544e-05;3935.98;0.800171;393
3930;3.65448e-05;3945.98;0.799866;394
3940;3.60687e-05;3955.98;0.799561;395
3950;3.63251e-05;3965.98;0.799561;396
3960;3.58337e-05;3975.98;0.799255;397
3970;3.60748e-05;3985.98;0.799866;398
3980;3.58795e-05;3995.98;0.799561;399
3990;3.57178e-05;4005.98;0.799561;400
4000;3.52509e-05;4015.98;0.799255;401
4010;3.58734e-05;4025.98;0.799561;402
4020;3.56201e-05;4035.98;0.799561;403
4030;3.46802e-05;4045.98;0.799866;404
4040;3.4549e-05;4055.98;0.799561;405
4050;3.44666e-05;4065.98;0.799866;406
4060;3.54126e-05;4075.98;0.799561;407
4070;3.4845e-05;4085.98;0.799561;408
4080;3.5199e-05;4095.98;0.799866;409
4090;3.5318e-05;4105.98;0.799561;410
4100;3.46375e-05;4115.98;0.800171;411
4110;3.51532e-05;4125.98;0.799866;412
4120;3.46802e-05;4135.98;0.799561;413
4130;3.38898e-05;4145.98;0.799866;414
4140;3.4256e-05;4155.98;0.799866;415
4150;3.38989e-05;4165.98;0.799561;416
4160;3.43353e-05;4175.98;0.799561;417
4170;3.37158e-05;4185.98;0.799255;418
4180;3.39813e-05;4195.98;0.799255;419
4190;3.3432e-05;4205.98;0.800171;420
4200;3.43811e-05;4215.98;0.799561;421
4210;3.33954e-05;4225.98;0.799255;422
4220;3.37128e-05;4235.98;0.799561;423
4230;3.3432e-05;4245.98;0.799866;424
4240;3.35266e-05;4255.98;0.799866;425
4250;3.30414e-05;4265.98;0.799866;426
4260;3.33618e-05;4275.98;0.800171;427
4270;3.30536e-05;4285.98;0.799561;428
4280;3.24219e-05;4295.98;0.799561;429
4290;3.29742e-05;4305.98;0.799866;430
4300;3.32947e-05;4315.98;0.799561;431
4310;3.2251e-05;4325.98;0.799561;432
4320;3.27179e-05;4335.98;0.799561;433
4330;3.24554e-05;4345.98;0.799866;434
4340;3.24005e-05;4355.98;0.79895;435
4350;3.26447e-05;4365.98;0.799561;436
4360;3.18787e-05;4375.98;0.799866;437
4370;3.18298e-05;4385.98;0.799866;438
4380;3.18909e-05;4395.98;0.799561;439
4390;3.1781e-05;4405.98;0.799255;440
4400;3.25623e-05;4415.98;0.799255;441
4410;3.15491e-05;4425.98;0.799866;442
4420;3.19305e-05;4435.98;0.799561;443
4430;3.20435e-05;4445.98;0.799561;444
4440;3.25623e-05;4455.98;0.799866;445
4450;3.16071e-05;4465.98;0.799561;446
4460;3.14819e-05;4475.98;0.799561;447
4470;3.1781e-05;4485.98;0.799255;448
4480;3.12866e-05;4495.98;0.799561;449
4490;3.17566e-05;4505.98;0.799255;450
4500;3.10181e-05;4515.98;0.799255;451
4510;3.09937e-05;4525.98;0.79895;452
4520;3.09052e-05;4535.98;0.79895;453
4530;3.11676e-05;4545.98;0.799561;454
4540;3.10638e-05;4555.98;0.799866;455
4550;3.03986e-05;4565.98;0.799255;456
4560;3.09082e-05;4575.98;0.799255;457
4570;3.11249e-05;4585.98;0.799255;458
4580;3.02673e-05;4595.98;0.800171;459
4590;3.02338e-05;4605.98;0.799561;460
4600;3.02094e-05;4615.98;0.799561;461
4610;2.99194e-05;4625.98;0.799561;462
4620;2.97516e-05;4635.98;0.799561;463
4630;2.97485e-05;4645.98;0.800171;464
4640;2.97791e-05;4655.98;0.799866;465
4650;2.98309e-05;4665.98;0.799255;466
4660;3.07037e-05;4675.98;0.799561;467
4670;2.98401e-05;4685.98;0.799561;468
4680;2.9834e-05;4695.98;0.799866;469
4690;3.01727e-05;4705.98;0.799561;470
4700;3.00262e-05;4715.98;0.799866;471
4710;2.98615e-05;4725.98;0.799561;472
4720;2.96631e-05;4735.98;0.799561;473
4730;2.97699e-05;4745.98;0.799866;474
4740;2.94373e-05;4755.98;0.799561;475
4750;2.89337e-05;4765.98;0.799866;476
4760;2.95258e-05;4775.98;0.799866;477
4770;2.92786e-05;4785.98;0.799561;478
4780;2.89429e-05;4795.98;0.800171;479
4790;2.86469e-05;4805.98;0.799561;480
4800;2.91229e-05;4815.98;0.799866;481
4810;2.84851e-05;4825.98;0.799561;482
4820;2.86713e-05;4835.98;0.799561;483
4830;2.90558e-05;4845.98;0.799561;484
4840;2.79907e-05;4855.98;0.799866;485
4850;2.80853e-05;4865.98;0.799561;486
4860;2.83722e-05;4875.98;0.799866;487
4870;2.84485e-05;4885.98;0.799866;488
4880;2.79968e-05;4895.98;0.800171;489
4890;2.76978e-05;4905.98;0.799561;490
4900;2.81525e-05;4915.98;0.799255;491
4910;2.85004e-05;4925.98;0.799866;492
4920;2.77161e-05;4935.98;0.799561;493
4930;2.77557e-05;4945.98;0.799561;494
4940;2.81921e-05;4955.98;0.799561;495
4950;2.72766e-05;4965.98;0.79895;496
4960;2.7121e-05;4975.98;0.799255;497
4970;2.78564e-05;4985.98;0.799561;498
4980;2.76611e-05;4995.98;0.799561;499
4990;2.7948e-05;5005.98;0.799255;500
5000;2.76031e-05;5015.98;0.800171;501
5010;2.74628e-05;5025.98;0.799561;502
5020;2.6825e-05;5035.98;0.799866;503
5030;2.7594e-05;5045.98;0.799561;504
5040;2.7002e-05;5055.98;0.799866;505
5050;2.75024e-05;5065.98;0.799561;506
5060;2.73163e-05;5075.98;0.800171;507
5070;2.69653e-05;5085.98;0.799255;508
5080;2.72369e-05;5095.98;0.799561;509
5090;2.72491e-05;5105.98;0.799866;510
5100;2.6828e-05;5115.98;0.799866;511
5110;2.68188e-05;5125.98;0.799255;512
5120;2.71179e-05;5135.98;0.799866;513
5130;2.71454e-05;5145.98;0.799866;514
5140;2.66602e-05;5155.98;0.799561;515
5150;2.65961e-05;5165.98;0.799255;516
5160;2.64526e-05;5175.98;0.800171;517
5170;2.64252e-05;5185.98;0.799255;518
5180;2.61078e-05;5195.98;0.799255;519
5190;2.62421e-05;5205.98;0.799561;520
5200;2.62299e-05;5215.98;0.799561;521
5210;2.62665e-05;5225.98;0.799561;522
5220;2.63092e-05;5235.98;0.799255;523
5230;2.63916e-05;5245.98;0.799561;524
5240;2.6416e-05;5255.98;0.799255;525
5250;2.63489e-05;5265.98;0.799561;526
5260;2.60284e-05;5275.98;0.799561;527
5270;2.58331e-05;5285.98;0.799561;528
5280;2.6178e-05;5295.98;0.800171;529
5290;2.60651e-05;5305.98;0.799255;530
5300;2.63153e-05;5315.98;0.799255;531
5310;2.57599e-05;5325.98;0.799255;532
5320;2.54913e-05;5335.98;0.799561;533
5330;2.58148e-05;5345.98;0.800171;534
5340;2.55768e-05;5355.98;0.799866;535
5350;2.55798e-05;5365.98;0.799561;536
5360;2.53204e-05;5375.98;0.799255;537
5370;2.52441e-05;5385.98;0.799866;538
5380;2.51129e-05;5395.98;0.799561;539
5390;2.52319e-05;5405.98;0.799561;540
5400;2.59033e-05;5415.98;0.799255;541
5410;2.7005e-05;5425.98;0.799561;542
5420;2.85522e-05;5435.98;0.799255;543
5430;3.17352e-05;5445.98;0.799561;544
5440;3.4082e-05;5455.98;0.799561;545
5450;3.461e-05;5465.98;0.799561;546
5460;3.34534e-05;5475.98;0.799561;547
5470;3.42834e-05;5485.98;0.799255;548
5480;3.33069e-05;5495.98;0.799561;549
5490;3.29834e-05;5505.98;0.799866;550
5500;3.35846e-05;5515.98;0.799561;551
5510;3.3078e-05;5525.98;0.799561;552
5520;3.21411e-05;5535.98;0.799561;553
5530;3.38013e-05;5545.98;0.799561;554
5540;3.18146e-05;5555.98;0.799561;555
5550;3.28644e-05;5565.98;0.799561;556
5560;3.2782e-05;5575.98;0.799866;557
5570;3.26477e-05;5585.98;0.79895;558
5580;3.22876e-05;5595.98;0.799255;559
5590;3.25134e-05;5605.98;0.799561;560
5600;3.21533e-05;5615.98;0.799561;561
5610;3.21045e-05;5625.98;0.799255;562
5620;3.21472e-05;5635.98;0.79895;563
5630;3.21747e-05;5645.98;0.799561;564
5640;3.19244e-05;5655.98;0.799255;565
5650;3.17902e-05;5665.98;0.799866;566
5660;3.11096e-05;5675.98;0.798645;567
5670;3.28217e-05;5685.98;0.799866;568
5680;3.22968e-05;5695.98;0.799561;569
5690;3.17902e-05;5705.98;0.799561;570
5700;3.14453e-05;5715.98;0.799255;571
5710;3.1543e-05;5725.98;0.800171;572
5720;3.21991e-05;5735.98;0.799255;573
5730;3.17322e-05;5745.98;0.799866;574
5740;3.07861e-05;5755.98;0.799866;575
5750;3.02094e-05;5765.98;0.800171;576
5760;3.12775e-05;5775.98;0.799561;577
5770;3.0719e-05;5785.98;0.799255;578
5780;3.08258e-05;5795.98;0.79895;579
5790;3.10669e-05;5805.98;0.799561;580
5800;3.1134e-05;5815.98;0.799561;581