File: ELECTROCHEM_DATA/16.12.2021 ПК222 BF4 1e-4 M TBABF4 0,1 M MeCN 1 mm anode 0,3 V/CA
Corrected time (s)	WE(1).Current (A)	Time (s)	WE(1).Potential (V)	Index
0	0.000151123	16.1203	0.300049	1
10	0.000147552	26.1203	0.300171	2
20	0.000148682	36.1203	0.300079	3
30	0.000148651	46.1203	0.300018	4
40	0.000143188	56.1203	0.30011	5
50	0.000147827	66.1203	0.299896	6
60	0.000138794	76.1203	0.300018	7
70	0.000142792	86.1203	0.300079	8
80	0.000143921	96.1203	0.300018	9
90	0.000137512	106.12	0.300049	10
100	0.000134308	116.12	0.299988	11
110	0.000136353	126.12	0.299927	12
120	0.000142059	136.12	0.300018	13
130	0.00013736	146.12	0.300018	14
140	0.000141541	156.12	0.299988	15
150	0.000132996	166.12	0.299896	16
160	0.000127991	176.12	0.300018	17
170	0.000129395	186.12	0.299957	18
180	0.000139008	196.12	0.300018	19
190	0.000133514	206.12	0.299927	20
200	0.000138214	216.12	0.299957	21
210	0.000131134	226.12	0.299988	22
220	0.00012854	236.12	0.299927	23
230	0.000130066	246.12	0.299957	24
240	0.00014151	256.12	0.300018	25
250	0.000131653	266.12	0.299988	26
260	0.000127472	276.12	0.299988	27
270	0.00012439	286.12	0.300018	28
280	0.000139679	296.12	0.300049	29
290	0.000127655	306.12	0.299957	30
300	0.000125854	316.12	0.30011	31
310	0.000129303	326.12	0.299927	32
320	0.000126953	336.12	0.300018	33
330	0.000136169	346.12	0.299988	34
340	0.000122925	356.12	0.299988	35
350	0.000116791	366.12	0.299957	36
360	0.000120789	376.12	0.299927	37
370	0.000125061	386.12	0.299988	38
380	0.000122345	396.12	0.299927	39
390	0.000125824	406.12	0.300079	40
400	0.000126373	416.12	0.300018	41
410	0.00012265	426.12	0.299957	42
420	0.000132965	436.12	0.299988	43
430	0.000123688	446.12	0.300018	44
440	0.000120209	456.12	0.299957	45
450	0.000113678	466.12	0.299957	46
460	0.000127594	476.12	0.299927	47
470	0.000128632	486.12	0.299896	48
480	0.000114502	496.12	0.300018	49
490	0.000118439	506.12	0.300049	50
500	0.000107361	516.12	0.299957	51
510	0.00011087	526.12	0.300018	52
520	0.000114624	536.12	0.299957	53
530	0.000126221	546.12	0.300079	54
540	0.000110718	556.12	0.299957	55
550	0.000114563	566.12	0.299957	56
560	0.00010614	576.12	0.299988	57
570	0.000110565	586.12	0.300018	58
580	0.000102844	596.12	0.299957	59
590	0.000107544	606.12	0.300018	60
600	0.000111115	616.12	0.300049	61
610	0.000115295	626.12	0.299896	62
620	0.000111053	636.12	0.299957	63
630	0.000101379	646.12	0.299988	64
640	0.000104156	656.12	0.299927	65
650	0.000106567	666.12	0.300018	66
660	9.93347e-05	676.12	0.299988	67
670	0.000103729	686.12	0.299988	68
680	0.000102081	696.12	0.299866	69
690	9.93042e-05	706.12	0.300049	70
700	0.00010144	716.12	0.299927	71
710	9.98535e-05	726.12	0.300079	72
720	9.94263e-05	736.12	0.300018	73
730	0.000100464	746.12	0.300049	74
740	0.000100586	756.12	0.299988	75
750	0.000102081	766.12	0.300018	76
760	0.000100311	776.12	0.300018	77
770	9.25903e-05	786.12	0.299957	78
780	9.53979e-05	796.12	0.299988	79
790	9.28345e-05	806.12	0.300018	80
800	9.32007e-05	816.12	0.300049	81
810	9.30176e-05	826.12	0.299988	82
820	9.30176e-05	836.12	0.299835	83
830	9.48181e-05	846.12	0.299805	84
840	9.33228e-05	856.12	0.299774	85
850	9.9884e-05	866.12	0.299805	86
860	9.42383e-05	876.12	0.299805	87
870	9.34753e-05	886.12	0.299927	88
880	9.07898e-05	896.12	0.299866	89
890	9.33228e-05	906.12	0.299866	90
900	9.39941e-05	916.12	0.299896	91
910	9.08813e-05	926.12	0.299866	92
920	9.31396e-05	936.12	0.299896	93
930	9.49707e-05	946.12	0.299835	94
940	9.36279e-05	956.12	0.299896	95
950	8.63037e-05	966.12	0.299805	96
960	9.35364e-05	976.12	0.299927	97
970	9.09424e-05	986.12	0.299896	98
980	8.62427e-05	996.12	0.299957	99
990	7.85522e-05	1006.12	0.299835	100
1000	8.44116e-05	1016.12	0.299805	101
1010	9.69543e-05	1026.12	0.299927	102
1020	8.12683e-05	1036.12	0.299835	103
1030	8.1604e-05	1046.12	0.299927	104
1040	7.84912e-05	1056.12	0.299805	105
1050	8.28247e-05	1066.12	0.299927	106
1060	7.78198e-05	1076.12	0.299927	107
1070	8.41675e-05	1086.12	0.299835	108
1080	8.95996e-05	1096.12	0.299805	109
1090	8.6792e-05	1106.12	0.299805	110
1100	8.05359e-05	1116.12	0.299835	111
1110	8.30078e-05	1126.12	0.299774	112
1120	8.26416e-05	1136.12	0.299927	113
1130	7.81555e-05	1146.12	0.299805	114
1140	7.79419e-05	1156.12	0.299866	115
1150	7.79419e-05	1166.12	0.299896	116
1160	7.43408e-05	1176.12	0.299774	117
1170	8.75854e-05	1186.12	0.299896	118
1180	7.53479e-05	1196.12	0.299927	119
1190	8.40149e-05	1206.12	0.299835	120
1200	8.1543e-05	1216.12	0.299927	121
1210	7.79419e-05	1226.12	0.299774	122
1220	7.39746e-05	1236.12	0.299835	123
1230	7.77588e-05	1246.12	0.299957	124
1240	7.06787e-05	1256.12	0.299866	125
1250	7.48291e-05	1266.12	0.299866	126
1260	7.12585e-05	1276.12	0.299896	127
1270	7.37915e-05	1286.12	0.299896	128
1280	7.48291e-05	1296.12	0.299896	129
1290	7.00989e-05	1306.12	0.299835	130
1300	7.59277e-05	1316.12	0.299927	131
1310	7.78198e-05	1326.12	0.299835	132
1320	7.68127e-05	1336.12	0.299927	133
1330	6.87866e-05	1346.12	0.299835	134
1340	6.87866e-05	1356.12	0.299805	135
1350	7.44934e-05	1366.12	0.299835	136
1360	7.25098e-05	1376.12	0.299835	137
1370	7.00073e-05	1386.12	0.299805	138
1380	7.09229e-05	1396.12	0.299896	139
1390	6.6925e-05	1406.12	0.299866	140
1400	7.01904e-05	1416.12	0.299896	141
1410	6.60095e-05	1426.12	0.299927	142
1420	6.75964e-05	1436.12	0.299805	143
1430	6.48804e-05	1446.12	0.299805	144
1440	6.67114e-05	1456.12	0.299896	145
1450	6.96716e-05	1466.12	0.299713	146
1460	6.604e-05	1476.12	0.299896	147
1470	6.72607e-05	1486.12	0.299866	148
1480	6.78406e-05	1496.12	0.299866	149
1490	6.55518e-05	1506.12	0.299866	150
1500	7.02209e-05	1516.12	0.299927	151
1510	6.03638e-05	1526.12	0.299805	152
1520	6.39954e-05	1536.12	0.299957	153
1530	6.10657e-05	1546.12	0.299835	154
1540	6.61621e-05	1556.12	0.299957	155
1550	6.41785e-05	1566.12	0.299896	156
1560	6.21033e-05	1576.12	0.299835	157
1570	6.31104e-05	1586.12	0.299866	158
1580	5.92957e-05	1596.12	0.299805	159
1590	6.25E-05	1606.12	0.299896	160
1600	6.29272e-05	1616.12	0.299866	161
1610	5.99365e-05	1626.12	0.299957	162
1620	5.97229e-05	1636.12	0.299957	163
1630	5.71289e-05	1646.12	0.299927	164
1640	6.05164e-05	1656.12	0.299927	165
1650	5.60303e-05	1666.12	0.299957	166
1660	5.33447e-05	1676.12	0.299896	167
1670	5.40161e-05	1686.12	0.299896	168
1680	5.48706e-05	1696.12	0.299896	169
1690	5.3894e-05	1706.12	0.299927	170
1700	5.93262e-05	1716.12	0.299927	171
1710	5.48401e-05	1726.12	0.299927	172
1720	5.30701e-05	1736.12	0.299774	173
1730	5.60913e-05	1746.12	0.299805	174
1740	5.2063e-05	1756.12	0.299805	175
1750	5.68542e-05	1766.12	0.299835	176
1760	5.078125E-05	1776.12	0.299866	177
1770	5.41687e-05	1786.12	0.299927	178
1780	5.56335e-05	1796.12	0.299866	179
1790	5.07202e-05	1806.12	0.299866	180
1800	4.99268e-05	1816.12	0.299927	181
1810	4.87366e-05	1826.12	0.299896	182
1820	5.24597e-05	1836.12	0.299866	183
1830	5.84106e-05	1846.12	0.299988	184
1840	4.91028e-05	1856.12	0.299896	185
1850	4.76105e-05	1866.12	0.299957	186
1860	5.33447e-05	1876.12	0.299927	187
1870	4.83551e-05	1886.12	0.299927	188
1880	4.72443e-05	1896.12	0.299896	189
1890	4.77448e-05	1906.12	0.299866	190
1900	4.64844e-05	1916.12	0.299805	191
1910	5.09949e-05	1926.12	0.299957	192
1920	4.85718e-05	1936.12	0.299774	193
1930	4.95605e-05	1946.12	0.299927	194
1940	4.80896e-05	1956.12	0.299988	195
1950	4.68628e-05	1966.12	0.299927	196
1960	5.0415e-05	1976.12	0.299957	197
1970	4.60785e-05	1986.12	0.299866	198
1980	4.24377e-05	1996.12	0.299927	199
1990	4.95605e-05	2006.12	0.299896	200
2000	4.69666e-05	2016.12	0.299927	201
2010	4.92249e-05	2026.12	0.300018	202
2020	4.27002e-05	2036.12	0.299927	203
2030	4.33807e-05	2046.12	0.299957	204
2040	4.44885e-05	2056.12	0.299805	205
2050	4.31396e-05	2066.12	0.299896	206
2060	4.46289e-05	2076.12	0.299896	207
2070	4.60754e-05	2086.12	0.299805	208
2080	4.55902e-05	2096.12	0.299835	209
2090	3.97705e-05	2106.12	0.299988	210
2100	4.15314e-05	2116.12	0.299866	211
2110	4.27551e-05	2126.12	0.299988	212
2120	4.37378e-05	2136.12	0.299835	213
2130	4.42261e-05	2146.12	0.299835	214
2140	4.2807e-05	2156.12	0.299866	215
2150	4.03076e-05	2166.12	0.299896	216
2160	4.16931e-05	2176.12	0.299805	217
2170	4.08752e-05	2186.12	0.299957	218
2180	4.29382e-05	2196.12	0.299805	219
2190	3.7851e-05	2206.12	0.300018	220
2200	4.16779e-05	2216.12	0.299866	221
2210	4.08508e-05	2226.12	0.299988	222
2220	4.20319e-05	2236.12	0.299866	223
2230	3.94165e-05	2246.12	0.299896	224
2240	4.34265e-05	2256.12	0.299896	225
2250	4.02222e-05	2266.12	0.299896	226
2260	3.77228e-05	2276.12	0.299835	227
2270	3.79578e-05	2286.12	0.299866	228
2280	3.8092e-05	2296.12	0.299835	229
2290	3.95569e-05	2306.12	0.299927	230
2300	3.8324e-05	2316.12	0.299896	231
2310	3.93555e-05	2326.12	0.299896	232
2320	3.98865e-05	2336.12	0.299988	233
2330	3.8916e-05	2346.12	0.299866	234
2340	3.77838e-05	2356.12	0.299988	235
2350	3.51471e-05	2366.12	0.299896	236
2360	3.70422e-05	2376.12	0.299957	237
2370	3.78021e-05	2386.12	0.299957	238
2380	3.7674e-05	2396.12	0.299957	239
2390	3.49915e-05	2406.12	0.299927	240
2400	3.46375e-05	2416.12	0.299957	241
2410	3.42529e-05	2426.12	0.299896	242
2420	3.63251e-05	2436.12	0.299927	243
2430	3.4729e-05	2446.12	0.299927	244
2440	3.43597e-05	2456.12	0.299927	245
2450	3.41705e-05	2466.12	0.299866	246
2460	3.47992e-05	2476.12	0.299896	247
2470	3.49701e-05	2486.12	0.299957	248
2480	3.36914e-05	2496.12	0.299835	249
2490	3.53607e-05	2506.12	0.299896	250
2500	3.28613e-05	2516.12	0.299957	251
2510	3.43994e-05	2526.12	0.299866	252
2520	3.255e-05	2536.12	0.299835	253
2530	3.21014e-05	2546.12	0.300049	254
2540	3.14667e-05	2556.12	0.299927	255
2550	3.21167e-05	2566.12	0.299988	256
2560	3.21442e-05	2576.12	0.299988	257
2570	3.26813e-05	2586.12	0.299957	258
2580	3.10211e-05	2596.12	0.299866	259
2590	3.16132e-05	2606.12	0.299927	260
2600	3.43414e-05	2616.12	0.299896	261
2610	3.23364e-05	2626.12	0.299805	262
2620	3.20282e-05	2636.12	0.300018	263
2630	3.41492e-05	2646.12	0.300049	264
2640	3.22632e-05	2656.12	0.299957	265
2650	3.26294e-05	2666.12	0.299805	266
2660	3.19946e-05	2676.12	0.299927	267
2670	3.24188e-05	2686.12	0.299866	268
2680	3.0481e-05	2696.12	0.299835	269
2690	3.05023e-05	2706.12	0.299896	270
2700	3.12469e-05	2716.12	0.300049	271
2710	3.1897e-05	2726.12	0.299927	272
2720	3.23578e-05	2736.12	0.300018	273
2730	2.92572e-05	2746.12	0.299927	274
2740	2.70874e-05	2756.12	0.299896	275
2750	3.08105e-05	2766.12	0.299805	276
2760	2.90344e-05	2776.12	0.299805	277
2770	3.16681e-05	2786.12	0.300049	278
2780	2.86499e-05	2796.12	0.299896	279
2790	2.83508e-05	2806.12	0.299988	280
2800	3.08289e-05	2816.12	0.299988	281
2810	2.85217e-05	2826.12	0.299988	282
2820	3.10059e-05	2836.12	0.300018	283
2830	2.8653e-05	2846.12	0.299988	284
2840	2.65228e-05	2856.12	0.299988	285
2850	2.836e-05	2866.12	0.299988	286
2860	2.87994e-05	2876.12	0.299866	287
2870	2.72949e-05	2886.12	0.299835	288
2880	2.65228e-05	2896.12	0.299866	289
2890	2.66266e-05	2906.12	0.299866	290
2900	2.82043e-05	2916.12	0.299988	291
2910	2.65289e-05	2926.12	0.299988	292
2920	2.93213e-05	2936.12	0.299988	293
2930	2.6889e-05	2946.12	0.299988	294
2940	2.55127e-05	2956.12	0.299927	295
2950	2.52045e-05	2966.12	0.299896	296
2960	2.59369e-05	2976.12	0.299927	297
2970	2.63519e-05	2986.12	0.299927	298
2980	2.76489e-05	2996.12	0.299896	299
2990	2.60071e-05	3006.12	0.299957	300
3000	2.64587e-05	3016.12	0.299988	301
3010	2.54639e-05	3026.12	0.299866	302
3020	2.58514e-05	3036.12	0.299957	303
3030	2.58545e-05	3046.12	0.299988	304
3040	2.3349e-05	3056.12	0.299835	305
3050	2.45544e-05	3066.12	0.299957	306
3060	2.54272e-05	3076.12	0.300018	307
3070	2.44873e-05	3086.12	0.299866	308
3080	2.82288e-05	3096.12	0.299927	309
3090	2.50519e-05	3106.12	0.299957	310
3100	2.48718e-05	3116.12	0.299866	311
3110	2.37152e-05	3126.12	0.299835	312
3120	2.39716e-05	3136.12	0.299957	313
3130	2.4176e-05	3146.12	0.299957	314
3140	2.3764e-05	3156.12	0.299927	315
3150	2.37518e-05	3166.12	0.299866	316
3160	2.2699e-05	3176.12	0.299927	317
3170	2.28943e-05	3186.12	0.299957	318
3180	2.48871e-05	3196.12	0.299957	319
3190	2.31567e-05	3206.12	0.300018	320
3200	2.28821e-05	3216.12	0.299927	321
3210	2.28394e-05	3226.12	0.300049	322
3220	2.26929e-05	3236.12	0.299927	323
3230	2.40479e-05	3246.12	0.299866	324
3240	2.24243e-05	3256.12	0.299927	325
3250	2.24884e-05	3266.12	0.299835	326
3260	2.4292e-05	3276.12	0.299927	327
3270	2.24579e-05	3286.12	0.299866	328
3280	2.48657e-05	3296.12	0.299988	329
3290	2.36176e-05	3306.12	0.299927	330
3300	2.32544e-05	3316.12	0.300018	331
3310	2.29126e-05	3326.12	0.299988	332
3320	2.19788e-05	3336.12	0.300018	333
3330	2.15302e-05	3346.12	0.299988	334
3340	2.16125e-05	3356.12	0.299896	335
3350	2.15973e-05	3366.12	0.299927	336
3360	2.0694e-05	3376.12	0.299866	337
3370	2.10144e-05	3386.12	0.299927	338
3380	2.18658e-05	3396.12	0.299896	339
3390	2.03613e-05	3406.12	0.299896	340
3400	2.09045e-05	3416.12	0.299805	341
3410	2.10724e-05	3426.12	0.299866	342
3420	2.31628e-05	3436.12	0.299957	343
3430	2.16797e-05	3446.12	0.299957	344
3440	2.08832e-05	3456.12	0.299805	345
3450	2.18079e-05	3466.12	0.299896	346
3460	2.08588e-05	3476.12	0.299927	347
3470	2.09534e-05	3486.12	0.299988	348
3480	2.03918e-05	3496.12	0.299988	349
3490	2.00592e-05	3506.12	0.299927	350
3500	2.02332e-05	3516.12	0.299957	351
3510	1.98883e-05	3526.12	0.300079	352
3520	1.92108e-05	3536.12	0.299927	353
3530	2.0166e-05	3546.12	0.299957	354
3540	1.93878e-05	3556.12	0.299896	355
3550	1.87653e-05	3566.12	0.299835	356
3560	1.96533e-05	3576.12	0.299896	357
3570	1.94397e-05	3586.12	0.299866	358
3580	2.15027e-05	3596.12	0.299866	359
3590	1.93939e-05	3606.12	0.299988	360
3600	1.99066e-05	3616.12	0.300018	361
3610	1.97693e-05	3626.12	0.299866	362
3620	1.90338e-05	3636.12	0.299957	363
3630	1.85883e-05	3646.12	0.299957	364
3640	1.88751e-05	3656.12	0.299866	365
3650	1.77948e-05	3666.12	0.299927	366
3660	1.8692e-05	3676.12	0.299927	367
3670	1.7746e-05	3686.12	0.299988	368
3680	1.9455e-05	3696.12	0.299988	369
3690	1.81122e-05	3706.12	0.299988	370
3700	1.8924e-05	3716.12	0.299957	371
3710	1.81183e-05	3726.12	0.299957	372
3720	1.86035e-05	3736.12	0.299927	373
3730	1.88293e-05	3746.12	0.300018	374
3740	1.81366e-05	3756.12	0.299927	375
3750	2.05505e-05	3766.12	0.300018	376
3760	1.91132e-05	3776.12	0.299927	377
3770	1.89453e-05	3786.12	0.300049	378
3780	1.76666e-05	3796.12	0.299957	379
3790	1.8277e-05	3806.12	0.299957	380
3800	1.71661e-05	3816.12	0.299927	381
3810	1.81305e-05	3826.12	0.299957	382
3820	1.82617e-05	3836.12	0.299866	383
3830	1.8222e-05	3846.12	0.299835	384
3840	1.82922e-05	3856.12	0.299896	385
3850	1.73798e-05	3866.12	0.299927	386
3860	1.78253e-05	3876.12	0.299835	387
3870	1.67206e-05	3886.12	0.299988	388
3880	1.77521e-05	3896.12	0.299896	389
3890	1.698e-05	3906.12	0.299957	390
3900	1.63818e-05	3916.12	0.299957	391
3910	1.65924e-05	3926.12	0.299957	392
3920	1.6449e-05	3936.12	0.299957	393
3930	1.66229e-05	3946.12	0.300018	394
3940	1.62537e-05	3956.12	0.299988	395
3950	1.72546e-05	3966.12	0.299866	396
3960	1.54724e-05	3976.12	0.300018	397
3970	1.61224e-05	3986.12	0.299866	398
3980	1.63483e-05	3996.12	0.299896	399
3990	1.63452e-05	4006.12	0.300079	400
4000	1.61072e-05	4016.12	0.299927	401
4010	1.58417e-05	4026.12	0.300018	402
4020	1.64978e-05	4036.12	0.300049	403
4030	1.59637e-05	4046.12	0.300018	404
4040	1.58234e-05	4056.12	0.300018	405
4050	1.59851e-05	4066.12	0.299957	406
4060	1.60492e-05	4076.12	0.30011	407
4070	1.69037e-05	4086.12	0.299927	408
4080	1.58875e-05	4096.12	0.299896	409
4090	1.5451e-05	4106.12	0.300049	410
4100	1.58875e-05	4116.12	0.299805	411
4110	1.75293e-05	4126.12	0.299957	412
4120	1.57196e-05	4136.12	0.299896	413
4130	1.56525e-05	4146.12	0.299957	414
4140	1.70471e-05	4156.12	0.299927	415
4150	1.53992e-05	4166.12	0.299988	416
4160	1.59241e-05	4176.12	0.299988	417
4170	1.51459e-05	4186.12	0.299927	418
4180	1.71997e-05	4196.12	0.299957	419
4190	1.58081e-05	4206.12	0.299927	420
4200	1.47644e-05	4216.12	0.300049	421
4210	1.5094e-05	4226.12	0.299866	422
4220	1.49017e-05	4236.12	0.300079	423
4230	1.4093e-05	4246.12	0.299927	424
4240	1.47247e-05	4256.12	0.299927	425
4250	1.58203e-05	4266.12	0.300079	426
4260	1.47675e-05	4276.12	0.299988	427
4270	1.46698e-05	4286.12	0.300079	428
4280	1.45752e-05	4296.12	0.299988	429
4290	1.42883e-05	4306.12	0.300049	430
4300	1.47736e-05	4316.12	0.299988	431
4310	1.45813e-05	4326.12	0.300018	432
4320	1.44073e-05	4336.12	0.299988	433
4330	1.46973e-05	4346.12	0.299988	434
4340	1.38153e-05	4356.12	0.299927	435
4350	1.43799e-05	4366.12	0.299896	436
4360	1.33972e-05	4376.12	0.299866	437
4370	1.38702e-05	4386.12	0.300079	438
4380	1.48956e-05	4396.12	0.300079	439
4390	1.42578e-05	4406.12	0.299957	440
4400	1.39984e-05	4416.12	0.300049	441
4410	1.44073e-05	4426.12	0.300049	442
4420	1.3855e-05	4436.12	0.299835	443
4430	1.36078e-05	4446.12	0.299957	444
4440	1.3739e-05	4456.12	0.299866	445
4450	1.36688e-05	4466.12	0.299896	446
4460	1.38824e-05	4476.12	0.299896	447
4470	1.46057e-05	4486.12	0.299927	448
4480	1.4444e-05	4496.12	0.299835	449
4490	1.36047e-05	4506.12	0.300049	450
4500	1.39221e-05	4516.12	0.300049	451
4510	1.34857e-05	4526.12	0.299988	452
4520	1.35498e-05	4536.12	0.30011	453
4530	1.3858e-05	4546.12	0.300018	454
4540	1.40015e-05	4556.12	0.299896	455
4550	1.32751e-05	4566.12	0.299988	456
4560	1.35437e-05	4576.12	0.299835	457
4570	1.34583e-05	4586.12	0.300018	458
4580	1.31927e-05	4596.12	0.299896	459
4590	1.43646e-05	4606.12	0.299957	460
4600	1.28906e-05	4616.12	0.299927	461
4610	1.30035e-05	4626.12	0.299957	462
4620	1.47888e-05	4636.12	0.300049	463
4630	1.44806e-05	4646.12	0.299927	464
4640	1.28906e-05	4656.12	0.299896	465
4650	1.33179e-05	4666.12	0.299896	466
4660	1.28448e-05	4676.12	0.299988	467
4670	1.30707e-05	4686.12	0.300049	468
4680	1.32202e-05	4696.12	0.300049	469
4690	1.30005e-05	4706.12	0.300049	470
4700	1.29425e-05	4716.12	0.299988	471
4710	1.31287e-05	4726.12	0.299988	472
4720	1.24084e-05	4736.12	0.300018	473
4730	1.25977e-05	4746.12	0.300079	474
4740	1.2384e-05	4756.12	0.299957	475
4750	1.35284e-05	4766.12	0.299957	476
4760	1.26343e-05	4776.12	0.299957	477
4770	1.29059e-05	4786.12	0.299988	478
4780	1.297e-05	4796.12	0.299957	479
4790	1.21674e-05	4806.12	0.299835	480
4800	1.27991e-05	4816.12	0.299835	481
4810	1.32263e-05	4826.12	0.299927	482
4820	1.2561e-05	4836.12	0.299927	483
4830	1.31134e-05	4846.12	0.299988	484
4840	1.22253e-05	4856.12	0.299957	485
4850	1.19446e-05	4866.12	0.300049	486
4860	1.23993e-05	4876.12	0.300018	487
4870	1.33423e-05	4886.12	0.300018	488
4880	1.22803e-05	4896.12	0.300018	489
4890	1.2793e-05	4906.12	0.299896	490
4900	1.20697e-05	4916.12	0.300018	491
4910	1.1731e-05	4926.12	0.299957	492
4920	1.27808e-05	4936.12	0.299927	493
4930	1.25702e-05	4946.12	0.299988	494
4940	1.22162e-05	4956.12	0.299896	495
4950	1.2619e-05	4966.12	0.300049	496
4960	1.22284e-05	4976.12	0.299988	497
4970	1.23962e-05	4986.12	0.299988	498
4980	1.18591e-05	4996.12	0.300018	499
4990	1.20239e-05	5006.12	0.300018	500
5000	1.17279e-05	5016.12	0.300171	501
5010	1.17798e-05	5026.12	0.299927	502
5020	1.20148e-05	5036.12	0.299896	503
5030	1.20453e-05	5046.12	0.299866	504
5040	1.20026e-05	5056.12	0.299835	505
5050	1.22772e-05	5066.12	0.300018	506
5060	1.24542e-05	5076.12	0.299957	507
5070	1.18835e-05	5086.12	0.299896	508
5080	1.2088e-05	5096.12	0.300049	509
5090	1.20453e-05	5106.12	0.299988	510
5100	1.27472e-05	5116.12	0.299988	511
5110	1.17401e-05	5126.12	0.299988	512
5120	1.17584e-05	5136.12	0.299957	513
5130	1.15173e-05	5146.12	0.299957	514
5140	1.22711e-05	5156.12	0.299988	515
5150	1.14471e-05	5166.12	0.300018	516
5160	1.11053e-05	5176.12	0.299988	517
5170	1.15967e-05	5186.12	0.300049	518
5180	1.26282e-05	5196.12	0.299988	519
5190	1.18805e-05	5206.12	0.299988	520
5200	1.09314e-05	5216.12	0.300018	521
5210	1.17035e-05	5226.12	0.299957	522
5220	1.09589e-05	5236.12	0.300018	523
5230	1.13556e-05	5246.12	0.300049	524
5240	1.11694e-05	5256.12	0.299988	525
5250	1.08856e-05	5266.12	0.299896	526
5260	1.15021e-05	5276.12	0.299988	527
5270	1.08124e-05	5286.12	0.300079	528
5280	1.11481e-05	5296.12	0.299988	529
5290	1.14441e-05	5306.12	0.300171	530
5300	1.10321e-05	5316.12	0.300018	531
5310	1.11847e-05	5326.12	0.299927	532
5320	1.12183e-05	5336.12	0.299957	533
5330	1.20148e-05	5346.12	0.299927	534
5340	1.0672e-05	5356.12	0.299988	535
5350	1.09406e-05	5366.12	0.300049	536
5360	1.11298e-05	5376.12	0.300079	537
5370	1.08856e-05	5386.12	0.300018	538
5380	1.08826e-05	5396.12	0.300079	539
5390	1.09863e-05	5406.12	0.299988	540
5400	1.073e-05	5416.12	0.299988	541
5410	1.1499e-05	5426.12	0.300018	542
5420	1.14105e-05	5436.12	0.299927	543
5430	1.11115e-05	5446.12	0.299957	544
5440	1.11786e-05	5456.12	0.299988	545
5450	1.06049e-05	5466.12	0.299988	546
5460	1.06628e-05	5476.12	0.299988	547
5470	1.06354e-05	5486.12	0.300079	548
5480	1.05804e-05	5496.12	0.299896	549
5490	1.11237e-05	5506.12	0.30011	550
5500	1.11969e-05	5516.12	0.30011	551
5510	1.10535e-05	5526.12	0.299988	552
5520	1.04889e-05	5536.12	0.299988	553
5530	1.07666e-05	5546.12	0.299957	554
5540	1.05469e-05	5556.12	0.299866	555
5550	1.0379e-05	5566.12	0.299927	556
5560	1.0788e-05	5576.12	0.299957	557
5570	1.1142e-05	5586.12	0.299957	558
5580	1.06445e-05	5596.12	0.299866	559
5590	1.13129e-05	5606.12	0.299957	560
5600	1.10748e-05	5616.12	0.299927	561
5610	1.11389e-05	5626.12	0.299957	562
5620	1.10779e-05	5636.12	0.299957	563
5630	1.02936e-05	5646.12	0.299866	564
5640	1.02448e-05	5656.12	0.300079	565
5650	1.0675e-05	5666.12	0.299835	566
5660	1.02448e-05	5676.12	0.299866	567
5670	1.05865e-05	5686.12	0.299957	568
5680	1.10199e-05	5696.12	0.299957	569
5690	1.14288e-05	5706.12	0.299957	570
5700	1.03058e-05	5716.12	0.299988	571
5710	1.0495e-05	5726.12	0.299988	572
5720	9.94568e-06	5736.12	0.299896	573
5730	1.02722e-05	5746.12	0.299896	574
5740	1.03729e-05	5756.12	0.299927	575
5750	1.01807e-05	5766.12	0.299866	576
5760	1.03699e-05	5776.12	0.300018	577
5770	1.01471e-05	5786.12	0.299927	578
5780	1.04248e-05	5796.12	0.300079	579
5790	1.0257e-05	5806.12	0.299957	580
5800	1.02844e-05	5816.12	0.299927	581
5810	1.0611e-05	5826.12	0.300018	582
5820	1.04248e-05	5836.12	0.300018	583
5830	1.03851e-05	5846.12	0.300049	584
5840	9.88159e-06	5856.12	0.299957	585
5850	1.08673e-05	5866.12	0.300018	586
5860	1.026e-05	5876.12	0.300049	587
5870	9.84497e-06	5886.12	0.299957	588
5880	1.00311e-05	5896.12	0.299957	589
5890	1.01288e-05	5906.12	0.299988	590
5900	9.9823e-06	5916.12	0.299927	591
5910	1.07147e-05	5926.12	0.299866	592
5920	1.02753e-05	5936.12	0.299835	593
5930	1.04309e-05	5946.12	0.299988	594
5940	1.00708e-05	5956.12	0.299957	595
5950	1.07574e-05	5966.12	0.300018	596
5960	1.08673e-05	5976.12	0.300049	597
5970	1.01501e-05	5986.12	0.300018	598
5980	1.03455e-05	5996.12	0.299957	599
5990	1.0199e-05	6006.12	0.30014	600
6000	1.04553e-05	6016.12	0.300018	601
6010	1.02112e-05	6026.12	0.300049	602
6020	1.06659e-05	6036.12	0.299927	603
6030	1.02844e-05	6046.12	0.299957	604
6040	1.03271e-05	6056.12	0.300079	605
6050	1.04126e-05	6066.12	0.299927	606
6060	1.00891e-05	6076.12	0.300018	607
6070	1.05591e-05	6086.12	0.299988	608
6080	1.01044e-05	6096.12	0.300049	609
6090	9.91516e-06	6106.12	0.300049	610
6100	1.04034e-05	6116.12	0.299988	611
6110	1.00769e-05	6126.12	0.300018	612
6120	9.9762e-06	6136.12	0.300018	613
6130	9.47571e-06	6146.12	0.300018	614
6140	1.00464e-05	6156.12	0.300018	615
6150	1.01685e-05	6166.12	0.300049	616
6160	1.05042e-05	6176.12	0.299988	617
6170	1.01379e-05	6186.12	0.299927	618
6180	9.88464e-06	6196.12	0.299896	619
6190	1.0321e-05	6206.12	0.299866	620
6200	1.10748e-05	6216.12	0.299988	621
6210	9.84497e-06	6226.12	0.300018	622
6220	1.09802e-05	6236.12	0.299988	623
6230	9.96094e-06	6246.12	0.30014	624
6240	9.93042e-06	6256.12	0.299927	625
6250	9.67102e-06	6266.12	0.299835	626
6260	9.85107e-06	6276.12	0.299927	627
6270	1.05713e-05	6286.12	0.299866	628
6280	1.03821e-05	6296.12	0.299988	629
6290	9.85413e-06	6306.12	0.299927	630
6300	9.83582e-06	6316.12	0.299896	631
6310	9.78699e-06	6326.12	0.299896	632
6320	9.66492e-06	6336.12	0.299927	633
6330	9.73816e-06	6346.12	0.300018	634
6340	9.66492e-06	6356.12	0.299866	635
6350	9.19495e-06	6366.12	0.299744	636
6360	1.02325e-05	6376.12	0.299896	637
6370	9.85413e-06	6386.12	0.299744	638
6380	9.95789e-06	6396.12	0.299774	639
6390	1.00891e-05	6406.12	0.299927	640
6400	1.03088e-05	6416.12	0.299805	641
6410	1.02325e-05	6426.12	0.299957	642
6420	9.71375e-06	6436.12	0.299835	643
6430	9.82056e-06	6446.12	0.299866	644
6440	9.75647e-06	6456.12	0.299866	645
6450	9.65271e-06	6466.12	0.299774	646
6460	9.6283e-06	6476.12	0.299774	647
6470	9.9823e-06	6486.12	0.299713	648
6480	9.87549e-06	6496.12	0.299805	649
6490	9.76868e-06	6506.12	0.299835	650
6500	9.79919e-06	6516.12	0.299896	651
6510	9.91211e-06	6526.12	0.299805	652
6520	1.04858e-05	6536.12	0.299866	653
6530	9.87854e-06	6546.12	0.299835	654
6540	1.00983e-05	6556.12	0.299927	655
6550	1.03333e-05	6566.12	0.299927	656
6560	9.89685e-06	6576.12	0.299927	657
6570	1.06201e-05	6586.12	0.299896	658
6580	9.82666e-06	6596.12	0.299774	659
6590	1.00494e-05	6606.12	0.299774	660
6600	9.93042e-06	6616.12	0.299774	661
6610	9.84802e-06	6626.12	0.299805	662
6620	9.8938e-06	6636.12	0.299957	663
6630	1.04523e-05	6646.12	0.299774	664
6640	1.00433e-05	6656.12	0.299774	665
6650	9.88464e-06	6666.12	0.299835	666
6660	1.00433e-05	6676.12	0.299927	667
6670	9.94568e-06	6686.12	0.299744	668
6680	9.50012e-06	6696.12	0.299866	669
6690	9.85107e-06	6706.12	0.299866	670
6700	9.70154e-06	6716.12	0.299652	671
6710	9.95178e-06	6726.12	0.299805	672
6720	9.8877e-06	6736.12	0.299896	673
6730	1.05255e-05	6746.12	0.299866	674
6740	9.92126e-06	6756.12	0.299835	675
6750	1.04034e-05	6766.12	0.299805	676
6760	9.90295e-06	6776.12	0.299957	677
6770	9.78088e-06	6786.12	0.299866	678
6780	9.64966e-06	6796.12	0.299774	679
6790	9.70764e-06	6806.12	0.299896	680
6800	1.06873e-05	6816.12	0.299835	681
6810	9.93958e-06	6826.12	0.299774	682
6820	9.92126e-06	6836.12	0.299805	683
6830	9.78088e-06	6846.12	0.299866	684
6840	9.729e-06	6856.12	0.299805	685
6850	1.00555e-05	6866.12	0.299744	686
6860	1.00891e-05	6876.12	0.299805	687
6870	1.03027e-05	6886.12	0.299896	688
6880	9.9884e-06	6896.12	0.299927	689
6890	1.02783e-05	6906.12	0.299744	690
6900	9.77783e-06	6916.12	0.299774	691
6910	9.87854e-06	6926.12	0.299927	692
6920	9.2804e-06	6936.12	0.299866	693
6930	9.59778e-06	6946.12	0.299774	694
6940	9.6405e-06	6956.12	0.299835	695
6950	1.0376e-05	6966.12	0.299927	696
6960	9.72595e-06	6976.12	0.299744	697
6970	9.49707e-06	6986.12	0.299866	698
6980	1.00159e-05	6996.12	0.299805	699
6990	9.64355e-06	7006.12	0.299774	700
7000	9.34448e-06	7016.12	0.299866	701
7010	1.01776e-05	7026.12	0.299896	702
7020	1.00983e-05	7036.12	0.299774	703
7030	9.52454e-06	7046.12	0.299744	704
7040	9.59473e-06	7056.12	0.299927	705
7050	9.765625E-06	7066.12	0.299805	706
7060	9.92126e-06	7076.12	0.299744	707
7070	9.18884e-06	7086.12	0.299835	708
7080	9.765625E-06	7096.12	0.299896	709
7090	9.54895e-06	7106.12	0.299774	710
7100	9.65576e-06	7116.12	0.299774	711
7110	9.4635e-06	7126.12	0.299866	712
7120	9.58862e-06	7136.12	0.299927	713
7130	9.40857e-06	7146.12	0.299866	714
7140	9.80835e-06	7156.12	0.299866	715
7150	9.56726e-06	7166.12	0.299744	716
7160	9.56726e-06	7176.12	0.299774	717
7170	9.75647e-06	7186.12	0.299896	718
7180	9.27429e-06	7196.12	0.299835	719
7190	9.85107e-06	7206.12	0.299866	720
7200	9.765625E-06	7216.12	0.299896	721
7210	9.26819e-06	7226.12	0.299835	722
7220	9.56421e-06	7236.12	0.299744	723
7230	9.57642e-06	7246.12	0.299835	724
7240	9.2865e-06	7256.12	0.299805	725
7250	1.00494e-05	7266.12	0.299774	726
7260	9.85107e-06	7276.12	0.299805	727
7270	9.33838e-06	7286.12	0.299866	728
7280	9.53369e-06	7296.12	0.299805	729
7290	9.27124e-06	7306.12	0.299774	730
7300	9.36279e-06	7316.12	0.299774	731
7310	1.03851e-05	7326.12	0.299805	732
7320	9.51843e-06	7336.12	0.299835	733
7330	9.28955e-06	7346.12	0.299957	734
7340	9.40247e-06	7356.12	0.299835	735
7350	9.79919e-06	7366.12	0.299744	736
7360	9.59778e-06	7376.12	0.299835	737
7370	1.00769e-05	7386.12	0.299866	738
7380	9.01489e-06	7396.12	0.299805	739
7390	1.00677e-05	7406.12	0.299774	740
7400	8.984375E-06	7416.12	0.299866	741
7410	1.01257e-05	7426.12	0.299683	742
7420	9.91211e-06	7436.12	0.299805	743
7430	9.49402e-06	7446.12	0.299774	744
7440	9.44214e-06	7456.12	0.299835	745
7450	9.30176e-06	7466.12	0.299805	746
7460	9.18579e-06	7476.12	0.299835	747
7470	9.51233e-06	7486.12	0.299805	748
7480	9.30786e-06	7496.12	0.299744	749
7490	9.34753e-06	7506.12	0.299774	750
7500	9.29565e-06	7516.12	0.299835	751
7510	9.36279e-06	7526.12	0.299774	752
7520	9.43298e-06	7536.12	0.299896	753
7530	9.43909e-06	7546.12	0.299835	754
7540	9.86023e-06	7556.12	0.299713	755
7550	9.63745e-06	7566.12	0.299835	756
7560	9.47876e-06	7576.12	0.299744	757
7570	9.26819e-06	7586.12	0.299835	758
7580	9.16748e-06	7596.12	0.299896	759
7590	9.23157e-06	7606.12	0.299988	760
7600	9.30176e-06	7616.12	0.299835	761
7610	9.91211e-06	7626.12	0.299927	762
7620	9.61304e-06	7636.12	0.299866	763
7630	9.79614e-06	7646.12	0.299713	764
7640	8.88672e-06	7656.12	0.299866	765
7650	9.552e-06	7666.12	0.299805	766
7660	9.34143e-06	7676.12	0.299744	767
7670	8.86841e-06	7686.12	0.299774	768
7680	9.22852e-06	7696.12	0.299866	769
7690	9.18884e-06	7706.12	0.299805	770
7700	9.74121e-06	7716.12	0.299805	771
7710	9.76257e-06	7726.12	0.299805	772
7720	9.7168e-06	7736.12	0.299896	773
7730	9.00879e-06	7746.12	0.299805	774
7740	1.00311e-05	7756.12	0.299835	775
7750	9.11255e-06	7766.12	0.299866	776
7760	9.33533e-06	7776.12	0.299957	777
7770	9.67102e-06	7786.12	0.299896	778
7780	9.24072e-06	7796.12	0.299774	779
7790	9.25598e-06	7806.12	0.299774	780
7800	9.10339e-06	7816.12	0.299835	781
7810	9.39941e-06	7826.12	0.299835	782
7820	9.48486e-06	7836.12	0.299805	783
7830	9.198e-06	7846.12	0.299896	784
7840	8.97827e-06	7856.12	0.299835	785
7850	9.46045e-06	7866.12	0.299805	786
7860	9.27734e-06	7876.12	0.299744	787
7870	9.13086e-06	7886.12	0.299866	788
7880	9.19189e-06	7896.12	0.299866	789
7890	9.3689e-06	7906.12	0.299957	790
7900	9.77478e-06	7916.12	0.299744	791
7910	9.73206e-06	7926.12	0.299896	792
7920	1.00067e-05	7936.12	0.299896	793
7930	9.50623e-06	7946.12	0.299896	794
7940	9.57336e-06	7956.12	0.299774	795
7950	9.42383e-06	7966.12	0.299774	796
7960	8.95691e-06	7976.12	0.299805	797
7970	9.765625E-06	7986.12	0.299744	798
7980	9.90906e-06	7996.12	0.299835	799
7990	9.35669e-06	8006.12	0.299957	800
8000	9.90295e-06	8016.12	0.299866	801
8010	9.41162e-06	8026.12	0.299896	802
8020	9.22852e-06	8036.12	0.299774	803
8030	9.25903e-06	8046.12	0.299744	804
8040	9.51538e-06	8056.12	0.299805	805
8050	9.30481e-06	8066.12	0.299835	806
8060	9.62524e-06	8076.12	0.299774	807
8070	9.90906e-06	8086.12	0.299835	808
8080	9.15222e-06	8096.12	0.299835	809
8090	9.40247e-06	8106.12	0.299805	810
8100	8.83789e-06	8116.12	0.299866	811
8110	9.50928e-06	8126.12	0.299896	812
8120	9.4635e-06	8136.12	0.299713	813
8130	9.2804e-06	8146.12	0.299805	814
8140	9.69238e-06	8156.12	0.299835	815
8150	9.97925e-06	8166.12	0.299744	816
8160	9.07898e-06	8176.12	0.299896	817
8170	9.50928e-06	8186.12	0.299774	818
8180	1.01593e-05	8196.12	0.299805	819
8190	8.90503e-06	8206.12	0.299774	820
8200	9.76868e-06	8216.12	0.299805	821
8210	1.01166e-05	8226.12	0.299866	822
8220	9.77173e-06	8236.12	0.299866	823
8230	9.5459e-06	8246.12	0.299805	824
8240	9.29565e-06	8256.12	0.299744	825
8250	9.7168e-06	8266.12	0.299774	826
8260	9.42688e-06	8276.12	0.299744	827
8270	9.75037e-06	8286.12	0.299896	828
8280	1.00311e-05	8296.12	0.299744	829
8290	9.03931e-06	8306.12	0.299896	830
8300	9.48486e-06	8316.12	0.299866	831
8310	9.54285e-06	8326.12	0.299774	832
8320	9.38416e-06	8336.12	0.299927	833
8330	8.84094e-06	8346.12	0.299866	834
8340	9.43909e-06	8356.12	0.299866	835
8350	9.30481e-06	8366.12	0.299835	836
8360	1.14227e-05	8376.12	0.299866	837
8370	9.78699e-06	8386.12	0.299774	838
8380	9.21326e-06	8396.12	0.300018	839
8390	9.34448e-06	8406.12	0.299835	840
8400	9.79309e-06	8416.12	0.299683	841
8410	9.7229e-06	8426.12	0.299774	842
8420	1.00647e-05	8436.12	0.299652	843
8430	9.24988e-06	8446.12	0.299896	844
8440	9.58252e-06	8456.12	0.299896	845
8450	1.02203e-05	8466.12	0.299835	846
8460	9.76868e-06	8476.12	0.299988	847
8470	1.01013e-05	8486.12	0.299835	848
8480	9.51233e-06	8496.12	0.299988	849
8490	9.55505e-06	8506.12	0.299866	850
8500	9.56116e-06	8516.12	0.299927	851
8510	1.02203e-05	8526.12	0.299896	852
8520	9.40552e-06	8536.12	0.299744	853
8530	9.57031e-06	8546.12	0.299896	854
8540	9.70154e-06	8556.12	0.299866	855
8550	9.58557e-06	8566.12	0.299835	856
8560	1.01471e-05	8576.12	0.299927	857
8570	9.8999e-06	8586.12	0.299927	858
8580	9.40857e-06	8596.12	0.299774	859
8590	1.01288e-05	8606.12	0.299927	860
8600	8.71582e-06	8616.12	0.299774	861
8610	9.58252e-06	8626.12	0.299927	862
8620	9.66187e-06	8636.12	0.299835	863
8630	9.3811e-06	8646.12	0.299896	864
8640	9.52454e-06	8656.12	0.299927	865
8650	9.67712e-06	8666.12	0.299866	866
8660	9.77173e-06	8676.12	0.299896	867
8670	9.43909e-06	8686.12	0.299835	868
8680	9.68933e-06	8696.12	0.299927	869
8690	9.61914e-06	8706.12	0.299866	870
8700	8.84094e-06	8716.12	0.299835	871
8710	1.00433e-05	8726.12	0.299805	872
8720	9.5459e-06	8736.12	0.299896	873
8730	1.08032e-05	8746.12	0.299744	874
8740	9.2865e-06	8756.12	0.299866	875
8750	9.39636e-06	8766.12	0.299866	876
8760	1.08826e-05	8776.12	0.299957	877
8770	1.04431e-05	8786.12	0.299835	878
8780	1.04431e-05	8796.12	0.299866	879
8790	9.70764e-06	8806.12	0.299866	880
8800	1.03485e-05	8816.12	0.299866	881
8810	9.68323e-06	8826.12	0.299805	882
8820	9.44824e-06	8836.12	0.299774	883
8830	9.62219e-06	8846.12	0.299713	884
8840	9.57336e-06	8856.12	0.299713	885
8850	9.68628e-06	8866.12	0.299805	886
8860	1.01196e-05	8876.12	0.299774	887
8870	9.82666e-06	8886.12	0.299866	888
8880	1.05194e-05	8896.12	0.299866	889
8890	1.03821e-05	8906.12	0.299866	890
8900	9.74121e-06	8916.12	0.299744	891
8910	9.92126e-06	8926.12	0.299713	892
8920	9.67102e-06	8936.12	0.299713	893
8930	1.01257e-05	8946.12	0.299622	894
8940	9.50317e-06	8956.12	0.299805	895
8950	1.05438e-05	8966.12	0.299835	896
8960	9.95789e-06	8976.12	0.299713	897
8970	1.00616e-05	8986.12	0.299774	898
8980	9.35974e-06	8996.12	0.299805	899
8990	1.01532e-05	9006.12	0.299805	900
9000	1.04858e-05	9016.12	0.299805	901
9010	1.02814e-05	9026.12	0.299835	902
9020	1.04309e-05	9036.12	0.299774	903
9030	1.015625E-05	9046.12	0.299774	904
9040	1.01288e-05	9056.12	0.299744	905
9050	1.04492e-05	9066.12	0.299927	906
9060	1.01135e-05	9076.12	0.299866	907
9070	1.0257e-05	9086.12	0.299866	908
9080	8.96912e-06	9096.12	0.299866	909
9090	1.03851e-05	9106.12	0.299805	910
9100	1.02509e-05	9116.12	0.299774	911
9110	9.90601e-06	9126.12	0.299744	912
9120	9.43298e-06	9136.12	0.299835	913
9130	1.06964e-05	9146.12	0.299866	914
9140	1.03851e-05	9156.12	0.299805	915
9150	9.78088e-06	9166.12	0.299774	916
9160	1.00464e-05	9176.12	0.299774	917
9170	1.06903e-05	9186.12	0.299805	918
9180	1.07819e-05	9196.12	0.299683	919
9190	1.06903e-05	9206.12	0.299805	920
9200	1.0318e-05	9216.12	0.299774	921
9210	1.07269e-05	9226.12	0.299774	922
9220	1.01837e-05	9236.12	0.299774	923
9230	1.02844e-05	9246.12	0.299805	924
9240	9.84497e-06	9256.12	0.299927	925
9250	1.16547e-05	9266.12	0.299927	926
9260	1.02448e-05	9276.12	0.299866	927
9270	1.0376e-05	9286.12	0.299774	928
9280	1.01776e-05	9296.12	0.299774	929
9290	1.04889e-05	9306.12	0.299927	930
9300	1.0675e-05	9316.12	0.299866	931
9310	1.12579e-05	9326.12	0.299866	932
9320	9.37195e-06	9336.12	0.299805	933
9330	9.52148e-06	9346.12	0.299927	934
9340	1.03027e-05	9356.12	0.299805	935
9350	1.04675e-05	9366.12	0.299866	936
9360	1.04431e-05	9376.12	0.299774	937
9370	9.89685e-06	9386.12	0.299744	938
9380	1.04248e-05	9396.12	0.299805	939
9390	1.04797e-05	9406.12	0.299774	940
9400	1.03638e-05	9416.12	0.299805	941
9410	9.71375e-06	9426.12	0.299866	942
9420	9.67407e-06	9436.12	0.299835	943
9430	9.56726e-06	9446.12	0.299866	944
9440	9.08203e-06	9456.12	0.299927	945
9450	1.04126e-05	9466.12	0.299835	946
9460	1.12091e-05	9476.12	0.299744	947
9470	1.00098e-05	9486.12	0.299866	948
9480	1.01257e-05	9496.12	0.299744	949
9490	9.86328e-06	9506.12	0.299774	950
9500	1.01166e-05	9516.12	0.299866	951
9510	1.07849e-05	9526.12	0.299835	952
9520	1.02142e-05	9536.12	0.299866	953
9530	1.06567e-05	9546.12	0.299805	954
9540	1.15692e-05	9556.12	0.299866	955
9550	1.01807e-05	9566.12	0.299835	956
9560	1.04156e-05	9576.12	0.299774	957
9570	1.01044e-05	9586.12	0.299744	958
9580	1.00342e-05	9596.12	0.299835	959
9590	1.01013e-05	9606.12	0.299805	960
9600	1.06903e-05	9616.12	0.299744	961
9610	1.08246e-05	9626.12	0.299835	962
9620	9.97314e-06	9636.12	0.299713	963
9630	1.02295e-05	9646.12	0.299866	964
9640	9.75037e-06	9656.12	0.299866	965
9650	1.14868e-05	9666.12	0.299774	966
9660	1.03302e-05	9676.12	0.299866	967
9670	1.0379e-05	9686.12	0.299866	968
9680	1.04156e-05	9696.12	0.299805	969
9690	1.06293e-05	9706.12	0.299896	970
9700	9.77173e-06	9716.12	0.299866	971
9710	1.04645e-05	9726.12	0.299774	972
9720	9.64966e-06	9736.12	0.299805	973
9730	1.00922e-05	9746.12	0.299805	974
9740	1.01105e-05	9756.12	0.299835	975
9750	1.05042e-05	9766.12	0.299896	976
9760	1.09619e-05	9776.12	0.299957	977
9770	9.51233e-06	9786.12	0.299896	978
9780	1.05804e-05	9796.12	0.299774	979
9790	9.75647e-06	9806.12	0.299744	980
9800	1.02295e-05	9816.12	0.299774	981
9810	1.0675e-05	9826.12	0.299805	982
9820	9.28345e-06	9836.12	0.299774	983
9830	9.6344e-06	9846.12	0.299835	984
9840	1.0141e-05	9856.12	0.299835	985
9850	1.03821e-05	9866.12	0.299835	986
9860	1.00403e-05	9876.12	0.299805	987
9870	1.10901e-05	9886.12	0.299957	988
9880	9.42993e-06	9896.12	0.299896	989
9890	1.09009e-05	9906.12	0.299774	990
9900	1.00311e-05	9916.12	0.299866	991
9910	9.70764e-06	9926.12	0.299835	992
9920	9.06982e-06	9936.12	0.299835	993
9930	1.03027e-05	9946.12	0.299866	994
9940	9.52454e-06	9956.12	0.299835	995
9950	1.02722e-05	9966.12	0.299744	996
9960	1.08032e-05	9976.12	0.299866	997
9970	9.84802e-06	9986.12	0.299866	998
9980	9.65271e-06	9996.12	0.299927	999
9990	1.09344e-05	10006.1	0.299927	1000
10000	1.0257e-05	10016.1	0.299805	1001
10010	9.44519e-06	10026.1	0.299927	1002
10020	1.0553e-05	10036.1	0.299805	1003
10030	9.37195e-06	10046.1	0.299927	1004
10040	1.02661e-05	10056.1	0.299896	1005
10050	9.44824e-06	10066.1	0.299835	1006
10060	1.02966e-05	10076.1	0.299866	1007
10070	1.00647e-05	10086.1	0.299774	1008
10080	1.07269e-05	10096.1	0.299927	1009
10090	9.35974e-06	10106.1	0.299927	1010
10100	9.14917e-06	10116.1	0.299866	1011
10110	1.14288e-05	10126.1	0.299957	1012
10120	1.0025e-05	10136.1	0.299835	1013
10130	1.08734e-05	10146.1	0.299774	1014
10140	1.03668e-05	10156.1	0.299774	1015
10150	9.21021e-06	10166.1	0.299896	1016
10160	1.05042e-05	10176.1	0.299896	1017
10170	1.10016e-05	10186.1	0.299744	1018
10180	1.11694e-05	10196.1	0.299805	1019
10190	1.05194e-05	10206.1	0.299835	1020
10200	9.33838e-06	10216.1	0.299835	1021
10210	1.03363e-05	10226.1	0.299835	1022
10220	1.0434e-05	10236.1	0.299835	1023
10230	9.37195e-06	10246.1	0.299927	1024
10240	9.70764e-06	10256.1	0.299866	1025
10250	1.04523e-05	10266.1	0.299805	1026
10260	9.84497e-06	10276.1	0.299835	1027
10270	9.60388e-06	10286.1	0.299744	1028
10280	9.35669e-06	10296.1	0.299835	1029
10290	1.08643e-05	10306.1	0.299927	1030
10300	1.04858e-05	10316.1	0.299896	1031
10310	1.02783e-05	10326.1	0.299896	1032
10320	1.01105e-05	10336.1	0.299835	1033
10330	9.32922e-06	10346.1	0.299896	1034
10340	9.99146e-06	10356.1	0.299896	1035
10350	9.08813e-06	10366.1	0.299835	1036
10360	9.99451e-06	10376.1	0.299835	1037
10370	9.021e-06	10386.1	0.299866	1038
10380	9.54285e-06	10396.1	0.299896	1039
10390	1.11084e-05	10406.1	0.299805	1040
10400	1.07483e-05	10416.1	0.299805	1041
10410	1.05804e-05	10426.1	0.299774	1042
10420	9.53674e-06	10436.1	0.299774	1043
10430	1.00098e-05	10446.1	0.299866	1044
10440	1.02417e-05	10456.1	0.299896	1045
10450	1.0614e-05	10466.1	0.299896	1046
10460	1.01532e-05	10476.1	0.299774	1047
10470	9.49707e-06	10486.1	0.299957	1048
10480	1.12518e-05	10496.1	0.299805	1049
10490	1.09253e-05	10506.1	0.299957	1050
10500	9.4696e-06	10516.1	0.299835	1051
10510	1.09772e-05	10526.1	0.299927	1052
10520	1.02936e-05	10536.1	0.299835	1053
10530	1.09253e-05	10546.1	0.299744	1054
10540	1.10382e-05	10556.1	0.299805	1055
10550	1.25183e-05	10566.1	0.299713	1056
10560	1.22101e-05	10576.1	0.299805	1057
10570	1.30066e-05	10586.1	0.299805	1058
10580	1.22406e-05	10596.1	0.299744	1059
10590	1.28937e-05	10606.1	0.299774	1060
10600	1.35834e-05	10616.1	0.299713	1061
10610	1.18561e-05	10626.1	0.299774	1062
10620	1.39587e-05	10636.1	0.299744	1063
10630	1.34399e-05	10646.1	0.299744	1064
10640	1.32324e-05	10656.1	0.299774	1065
10650	1.34064e-05	10666.1	0.299805	1066
10660	1.34491e-05	10676.1	0.299774	1067
10670	1.2793e-05	10686.1	0.299744	1068
10680	1.27197e-05	10696.1	0.299805	1069
10690	1.50024e-05	10706.1	0.299683	1070
10700	1.33789e-05	10716.1	0.299835	1071
10710	1.36322e-05	10726.1	0.299713	1072
10720	1.18866e-05	10736.1	0.299805	1073
10730	1.3623e-05	10746.1	0.299866	1074
10740	1.20178e-05	10756.1	0.299835	1075
10750	1.2796e-05	10766.1	0.299713	1076
10760	1.4917e-05	10776.1	0.299805	1077
10770	1.25885e-05	10786.1	0.299683	1078
10780	1.19293e-05	10796.1	0.299805	1079
10790	1.29242e-05	10806.1	0.299683	1080
10800	1.21765e-05	10816.1	0.299896	1081
10810	1.43982e-05	10826.1	0.299683	1082