File: ELECTROCHEM_DATA/06.01.2022 ПК224 BF4 1e-4 M TBABF4 0,1 M MeCN 1 mm anode 0,6 V/CA
Corrected time (s)	WE(1).Current (A)	WE(1).Potential (V)	Time (s)	Index
0	0.000484894	0.79895	15.7684	1
10	0.000477142	0.799255	25.7684	2
20	0.000474548	0.799561	35.7684	3
30	0.000458405	0.799255	45.7684	4
40	0.000454376	0.799866	55.7684	5
50	0.000434326	0.799255	65.7684	6
60	0.000431732	0.799255	75.7684	7
70	0.000434875	0.79895	85.7684	8
80	0.000420135	0.799866	95.7684	9
90	0.000387421	0.79895	105.768	10
100	0.000345032	0.799255	115.768	11
110	0.000361786	0.799561	125.768	12
120	0.000370789	0.799866	135.768	13
130	0.000349487	0.799866	145.768	14
140	0.000330872	0.799561	155.768	15
150	0.000346252	0.799561	165.768	16
160	0.000335297	0.799866	175.768	17
170	0.000314789	0.799255	185.768	18
180	0.00031366	0.799561	195.768	19
190	0.000309387	0.799561	205.768	20
200	0.000316986	0.79895	215.768	21
210	0.000300995	0.799255	225.768	22
220	0.000314575	0.79895	235.768	23
230	0.000294464	0.799255	245.768	24
240	0.000296204	0.799255	255.768	25
250	0.000277893	0.799561	265.768	26
260	0.000293823	0.799866	275.768	27
270	0.000284729	0.799255	285.768	28
280	0.00025943	0.799561	295.768	29
290	0.000279938	0.799255	305.768	30
300	0.000265015	0.799561	315.768	31
310	0.000286743	0.799255	325.768	32
320	0.000237946	0.800171	335.768	33
330	0.000244598	0.799561	345.768	34
340	0.000242004	0.799561	355.768	35
350	0.000258087	0.799866	365.768	36
360	0.000251923	0.799561	375.768	37
370	0.000252289	0.799561	385.768	38
380	0.000238068	0.799255	395.768	39
390	0.000240753	0.800171	405.768	40
400	0.000238708	0.799255	415.768	41
410	0.000225067	0.799866	425.768	42
420	0.000234314	0.799866	435.768	43
430	0.000213104	0.799561	445.768	44
440	0.000217529	0.799255	455.768	45
450	0.000215454	0.799866	465.768	46
460	0.000207733	0.800171	475.768	47
470	0.000205139	0.799561	485.768	48
480	0.000204926	0.799561	495.768	49
490	0.000193665	0.799561	505.768	50
500	0.00019931	0.799561	515.768	51
510	0.000205292	0.799255	525.768	52
520	0.000200562	0.799255	535.768	53
530	0.000177643	0.799561	545.768	54
540	0.00018808	0.799561	555.768	55
550	0.000175842	0.799866	565.768	56
560	0.000184204	0.799561	575.768	57
570	0.000178772	0.799866	585.768	58
580	0.000172638	0.799866	595.768	59
590	0.000168335	0.799561	605.768	60
600	0.000170685	0.800171	615.768	61
610	0.000170502	0.799255	625.768	62
620	0.000175415	0.79895	635.768	63
630	0.000166229	0.799866	645.768	64
640	0.000160065	0.799255	655.768	65
650	0.000159668	0.799866	665.768	66
660	0.000165619	0.79895	675.768	67
670	0.000154114	0.799255	685.768	68
680	0.000158722	0.799866	695.768	69
690	0.000149902	0.799866	705.768	70
700	0.000152313	0.799561	715.768	71
710	0.000155731	0.799561	725.768	72
720	0.000150421	0.799866	735.768	73
730	0.000148651	0.799561	745.768	74
740	0.000154694	0.799561	755.768	75
750	0.000135162	0.799561	765.768	76
760	0.000141418	0.799866	775.768	77
770	0.000132416	0.799255	785.768	78
780	0.000149475	0.799866	795.768	79
790	0.000131531	0.799561	805.768	80
800	0.000140106	0.799255	815.768	81
810	0.00012619	0.799561	825.768	82
820	0.000129333	0.799561	835.768	83
830	0.000123016	0.799866	845.768	84
840	0.000122742	0.799255	855.768	85
850	0.000122589	0.799866	865.768	86
860	0.000124237	0.800171	875.768	87
870	0.000119598	0.799561	885.768	88
880	0.000124268	0.79895	895.768	89
890	0.000114319	0.799561	905.768	90
900	0.0001203	0.799561	915.768	91
910	0.000112946	0.799866	925.768	92
920	0.000114624	0.799255	935.768	93
930	0.000121765	0.799255	945.768	94
940	0.000117432	0.799255	955.768	95
950	0.000114075	0.799561	965.768	96
960	0.000108673	0.799866	975.768	97
970	0.000108429	0.799561	985.768	98
980	0.000104248	0.799255	995.768	99
990	0.00010788	0.799866	1005.77	100
1000	0.000111176	0.799561	1015.77	101
1010	0.000108521	0.799255	1025.77	102
1020	0.000103394	0.799866	1035.77	103
1030	0.000112244	0.799255	1045.77	104
1040	0.000100861	0.800171	1055.77	105
1050	9.94873e-05	0.79895	1065.77	106
1060	0.000101715	0.799866	1075.77	107
1070	0.000105804	0.799255	1085.77	108
1080	0.000101227	0.799255	1095.77	109
1090	9.39026e-05	0.799561	1105.77	110
1100	9.82971e-05	0.799561	1115.77	111
1110	9.55811e-05	0.799255	1125.77	112
1120	9.28955e-05	0.799561	1135.77	113
1130	9.4696e-05	0.799255	1145.77	114
1140	9.35974e-05	0.799255	1155.77	115
1150	9.47571e-05	0.799561	1165.77	116
1160	9.56116e-05	0.799561	1175.77	117
1170	8.53882e-05	0.799255	1185.77	118
1180	9.17358e-05	0.800171	1195.77	119
1190	8.98743e-05	0.799866	1205.77	120
1200	9.06677e-05	0.799866	1215.77	121
1210	9.30176e-05	0.799866	1225.77	122
1220	8.88977e-05	0.799866	1235.77	123
1230	8.6853e-05	0.799866	1245.77	124
1240	8.91113e-05	0.799561	1255.77	125
1250	8.45337e-05	0.799255	1265.77	126
1260	8.37402e-05	0.799561	1275.77	127
1270	8.05664e-05	0.799561	1285.77	128
1280	8.29468e-05	0.800171	1295.77	129
1290	8.4259e-05	0.799255	1305.77	130
1300	7.87659e-05	0.799866	1315.77	131
1310	7.98645e-05	0.799561	1325.77	132
1320	8.21838e-05	0.799561	1335.77	133
1330	8.36792e-05	0.799561	1345.77	134
1340	8.03528e-05	0.799561	1355.77	135
1350	7.77893e-05	0.799866	1365.77	136
1360	7.63245e-05	0.799561	1375.77	137
1370	7.82776e-05	0.799255	1385.77	138
1380	7.45544e-05	0.799866	1395.77	139
1390	8.08716e-05	0.800171	1405.77	140
1400	7.67212e-05	0.799561	1415.77	141
1410	7.64771e-05	0.799561	1425.77	142
1420	7.86438e-05	0.799866	1435.77	143
1430	7.44934e-05	0.799255	1445.77	144
1440	7.51648e-05	0.800171	1455.77	145
1450	7.39746e-05	0.799561	1465.77	146
1460	7.35779e-05	0.799866	1475.77	147
1470	6.7749e-05	0.799561	1485.77	148
1480	7.67212e-05	0.799561	1495.77	149
1490	7.26013e-05	0.800476	1505.77	150
1500	7.16248e-05	0.799561	1515.77	151
1510	7.2998e-05	0.799255	1525.77	152
1520	7.26318e-05	0.799561	1535.77	153
1530	7.27844e-05	0.799255	1545.77	154
1540	7.02515e-05	0.799866	1555.77	155
1550	7.39441e-05	0.799255	1565.77	156
1560	7.32117e-05	0.79895	1575.77	157
1570	7.04041e-05	0.799561	1585.77	158
1580	6.96716e-05	0.799561	1595.77	159
1590	6.74744e-05	0.799866	1605.77	160
1600	7.04041e-05	0.799561	1615.77	161
1610	6.68335e-05	0.79895	1625.77	162
1620	6.66809e-05	0.799866	1635.77	163
1630	6.40564e-05	0.799255	1645.77	164
1640	6.74744e-05	0.799866	1655.77	165
1650	6.92749e-05	0.799866	1665.77	166
1660	6.78711e-05	0.799255	1675.77	167
1670	6.82373e-05	0.799561	1685.77	168
1680	6.60706e-05	0.799866	1695.77	169
1690	6.62842e-05	0.799255	1705.77	170
1700	6.42395e-05	0.799866	1715.77	171
1710	6.48499e-05	0.799866	1725.77	172
1720	6.66809e-05	0.799561	1735.77	173
1730	6.38733e-05	0.799561	1745.77	174
1740	6.22864e-05	0.799561	1755.77	175
1750	6.3446e-05	0.799561	1765.77	176
1760	6.32629e-05	0.799561	1775.77	177
1770	6.47278e-05	0.79895	1785.77	178
1780	6.19812e-05	0.799866	1795.77	179
1790	6.28967e-05	0.799255	1805.77	180
1800	6.23779e-05	0.799561	1815.77	181
1810	6.11267e-05	0.799561	1825.77	182
1820	6.06079e-05	0.799866	1835.77	183
1830	6.29272e-05	0.799866	1845.77	184
1840	6.10962e-05	0.799561	1855.77	185
1850	5.94482e-05	0.799561	1865.77	186
1860	6.12793e-05	0.799255	1875.77	187
1870	5.88379e-05	0.799561	1885.77	188
1880	5.82275e-05	0.799561	1895.77	189
1890	5.85327e-05	0.800476	1905.77	190
1900	5.78308e-05	0.799255	1915.77	191
1910	6.11877e-05	0.799561	1925.77	192
1920	5.6488e-05	0.799561	1935.77	193
1930	5.93567e-05	0.799561	1945.77	194
1940	6.03027e-05	0.79895	1955.77	195
1950	5.72815e-05	0.799255	1965.77	196
1960	5.71594e-05	0.799255	1975.77	197
1970	5.94788e-05	0.799866	1985.77	198
1980	5.71289e-05	0.799561	1995.77	199
1990	5.60608e-05	0.799255	2005.77	200
2000	5.58472e-05	0.799561	2015.77	201
2010	5.81055e-05	0.799255	2025.77	202
2020	5.6427e-05	0.799255	2035.77	203
2030	5.71899e-05	0.800171	2045.77	204
2040	5.54199e-05	0.799561	2055.77	205
2050	5.52368e-05	0.799255	2065.77	206
2060	5.60913e-05	0.799255	2075.77	207
2070	5.57861e-05	0.799561	2085.77	208
2080	5.34973e-05	0.799561	2095.77	209
2090	5.46265e-05	0.799561	2105.77	210
2100	5.23987e-05	0.799561	2115.77	211
2110	5.42908e-05	0.799561	2125.77	212
2120	5.11475e-05	0.799561	2135.77	213
2130	5.29785e-05	0.799866	2145.77	214
2140	5.11169e-05	0.799561	2155.77	215
2150	5.26733e-05	0.799866	2165.77	216
2160	5.10864e-05	0.799561	2175.77	217
2170	5.3009e-05	0.799561	2185.77	218
2180	5.0415e-05	0.799866	2195.77	219
2190	5.24292e-05	0.799561	2205.77	220
2200	5.16052e-05	0.799561	2215.77	221
2210	5.16968e-05	0.799866	2225.77	222
2220	4.93164e-05	0.799866	2235.77	223
2230	5.29175e-05	0.799561	2245.77	224
2240	4.99268e-05	0.799561	2255.77	225
2250	5.14526e-05	0.799561	2265.77	226
2260	5.24292e-05	0.799866	2275.77	227
2270	5.14526e-05	0.799561	2285.77	228
2280	4.99268e-05	0.799866	2295.77	229
2290	4.97131e-05	0.799561	2305.77	230
2300	4.87976e-05	0.799561	2315.77	231
2310	4.67682e-05	0.799866	2325.77	232
2320	4.67621e-05	0.799866	2335.77	233
2330	4.76074e-05	0.799866	2345.77	234
2340	4.56177e-05	0.799866	2355.77	235
2350	4.58588e-05	0.800171	2365.77	236
2360	4.55872e-05	0.799561	2375.77	237
2370	4.48486e-05	0.799255	2385.77	238
2380	4.49799e-05	0.800171	2395.77	239
2390	4.53217e-05	0.800171	2405.77	240
2400	4.54712e-05	0.799866	2415.77	241
2410	4.48944e-05	0.799866	2425.77	242
2420	4.55078e-05	0.799866	2435.77	243
2430	4.33044e-05	0.799561	2445.77	244
2440	4.39728e-05	0.800781	2455.77	245
2450	4.43878e-05	0.799561	2465.77	246
2460	4.31213e-05	0.799561	2475.77	247
2470	4.19312e-05	0.799561	2485.77	248
2480	4.33807e-05	0.799255	2495.77	249
2490	4.38995e-05	0.799561	2505.77	250
2500	4.20258e-05	0.79895	2515.77	251
2510	4.35638e-05	0.79895	2525.77	252
2520	4.41071e-05	0.799866	2535.77	253
2530	4.17542e-05	0.799561	2545.77	254
2540	4.24957e-05	0.800171	2555.77	255
2550	4.23431e-05	0.799561	2565.77	256
2560	4.18915e-05	0.799255	2575.77	257
2570	4.19922e-05	0.799866	2585.77	258
2580	4.11499e-05	0.799561	2595.77	259
2590	4.1748e-05	0.799561	2605.77	260
2600	4.03839e-05	0.799866	2615.77	261
2610	3.93829e-05	0.799561	2625.77	262
2620	4.03595e-05	0.799255	2635.77	263
2630	4.00909e-05	0.799866	2645.77	264
2640	3.84613e-05	0.799255	2655.77	265
2650	3.97461e-05	0.799866	2665.77	266
2660	4.02557e-05	0.799561	2675.77	267
2670	3.74451e-05	0.799561	2685.77	268
2680	3.93036e-05	0.799255	2695.77	269
2690	3.9447e-05	0.799561	2705.77	270
2700	3.85529e-05	0.799866	2715.77	271
2710	3.88794e-05	0.799866	2725.77	272
2720	3.94653e-05	0.799561	2735.77	273
2730	3.82446e-05	0.799561	2745.77	274
2740	3.70636e-05	0.799255	2755.77	275
2750	3.78021e-05	0.799255	2765.77	276
2760	3.70483e-05	0.799561	2775.77	277
2770	3.83484e-05	0.799561	2785.77	278
2780	3.6441e-05	0.799561	2795.77	279
2790	3.72101e-05	0.800171	2805.77	280
2800	3.71368e-05	0.799866	2815.77	281
2810	3.74817e-05	0.799561	2825.77	282
2820	3.74054e-05	0.799561	2835.77	283
2830	3.64899e-05	0.799561	2845.77	284
2840	3.57208e-05	0.799866	2855.77	285
2850	3.65875e-05	0.799255	2865.77	286
2860	3.60535e-05	0.799255	2875.77	287
2870	3.68469e-05	0.799255	2885.77	288
2880	3.53546e-05	0.799561	2895.77	289
2890	3.50189e-05	0.799561	2905.77	290
2900	3.56323e-05	0.799255	2915.77	291
2910	3.42407e-05	0.799561	2925.77	292
2920	3.41248e-05	0.799255	2935.77	293
2930	3.51074e-05	0.799866	2945.77	294
2940	3.57361e-05	0.800171	2955.77	295
2950	3.48083e-05	0.799866	2965.77	296
2960	3.47565e-05	0.799561	2975.77	297
2970	3.43445e-05	0.799561	2985.77	298
2980	3.46649e-05	0.799561	2995.77	299
2990	3.38531e-05	0.799255	3005.77	300
3000	3.38867e-05	0.799866	3015.77	301
3010	3.22113e-05	0.799561	3025.77	302
3020	3.41644e-05	0.799561	3035.77	303
3030	3.39569e-05	0.799866	3045.77	304
3040	3.24432e-05	0.799866	3055.77	305
3050	3.33984e-05	0.799866	3065.77	306
3060	3.33893e-05	0.799866	3075.77	307
3070	3.34503e-05	0.799561	3085.77	308
3080	3.22235e-05	0.799255	3095.77	309
3090	3.29681e-05	0.799561	3105.77	310
3100	3.20068e-05	0.799866	3115.77	311
3110	3.24677e-05	0.800171	3125.77	312
3120	3.20984e-05	0.798645	3135.77	313
3130	3.28247e-05	0.799255	3145.77	314
3140	3.22357e-05	0.800171	3155.77	315
3150	3.21991e-05	0.799255	3165.77	316
3160	3.21167e-05	0.799255	3175.77	317
3170	3.13446e-05	0.799561	3185.77	318
3180	2.97272e-05	0.799561	3195.77	319
3190	3.03986e-05	0.799866	3205.77	320
3200	3.12225e-05	0.799866	3215.77	321
3210	3.07251e-05	0.799561	3225.77	322
3220	3.0603e-05	0.800171	3235.77	323
3230	3.04443e-05	0.799561	3245.77	324
3240	2.94525e-05	0.800476	3255.77	325
3250	2.99377e-05	0.799561	3265.77	326
3260	2.92938e-05	0.799561	3275.77	327
3270	2.99408e-05	0.799255	3285.77	328
3280	3.05389e-05	0.799561	3295.77	329
3290	2.94098e-05	0.799255	3305.77	330
3300	2.99286e-05	0.799561	3315.77	331
3310	2.89551e-05	0.799561	3325.77	332
3320	2.82196e-05	0.799561	3335.77	333
3330	2.95929e-05	0.799866	3345.77	334
3340	2.81067e-05	0.799561	3355.77	335
3350	3.0127e-05	0.799561	3365.77	336
3360	2.83112e-05	0.799561	3375.77	337
3370	2.91931e-05	0.799561	3385.77	338
3380	2.85065e-05	0.799866	3395.77	339
3390	2.72003e-05	0.799561	3405.77	340
3400	2.84851e-05	0.799561	3415.77	341
3410	2.84332e-05	0.799561	3425.77	342
3420	2.88422e-05	0.799866	3435.77	343
3430	2.90649e-05	0.799866	3445.77	344
3440	2.82166e-05	0.799561	3455.77	345
3450	2.71729e-05	0.800171	3465.77	346
3460	2.74261e-05	0.799561	3475.77	347
3470	2.8656e-05	0.799866	3485.77	348
3480	2.83295e-05	0.799561	3495.77	349
3490	2.7124e-05	0.79895	3505.77	350
3500	2.88269e-05	0.799255	3515.77	351
3510	2.65778e-05	0.799255	3525.77	352
3520	2.65289e-05	0.799866	3535.77	353
3530	2.67609e-05	0.79895	3545.77	354
3540	2.59705e-05	0.799561	3555.77	355
3550	2.65533e-05	0.799561	3565.77	356
3560	2.66937e-05	0.799255	3575.77	357
3570	2.565e-05	0.799561	3585.77	358
3580	2.50519e-05	0.799561	3595.77	359
3590	2.67975e-05	0.799255	3605.77	360
3600	2.69318e-05	0.799255	3615.77	361
3610	2.65045e-05	0.799561	3625.77	362
3620	2.66541e-05	0.799561	3635.77	363
3630	2.52563e-05	0.799255	3645.77	364
3640	2.70386e-05	0.799561	3655.77	365
3650	2.55127e-05	0.799561	3665.77	366
3660	2.50336e-05	0.799866	3675.77	367
3670	2.65656e-05	0.79895	3685.77	368
3680	2.54211e-05	0.799866	3695.77	369
3690	2.62543e-05	0.799255	3705.77	370
3700	2.51129e-05	0.799866	3715.77	371
3710	2.56714e-05	0.799866	3725.77	372
3720	2.60132e-05	0.799561	3735.77	373
3730	2.58453e-05	0.799866	3745.77	374
3740	2.48505e-05	0.799866	3755.77	375
3750	2.48779e-05	0.799255	3765.77	376
3760	2.51556e-05	0.799255	3775.77	377
3770	2.40204e-05	0.799866	3785.77	378
3780	2.4472e-05	0.799866	3795.77	379
3790	2.36053e-05	0.799866	3805.77	380
3800	2.3584e-05	0.799561	3815.77	381
3810	2.37122e-05	0.799255	3825.77	382
3820	2.4118e-05	0.799561	3835.77	383
3830	2.43042e-05	0.799561	3845.77	384
3840	2.41333e-05	0.799255	3855.77	385
3850	2.3877e-05	0.799255	3865.77	386
3860	2.41577e-05	0.799255	3875.77	387
3870	2.4469e-05	0.799561	3885.77	388
3880	2.43408e-05	0.799866	3895.77	389
3890	2.39929e-05	0.799866	3905.77	390
3900	2.38861e-05	0.799866	3915.77	391
3910	2.28027e-05	0.799866	3925.77	392
3920	2.27478e-05	0.799255	3935.77	393
3930	2.38922e-05	0.79895	3945.77	394
3940	2.22595e-05	0.79895	3955.77	395
3950	2.28027e-05	0.799561	3965.77	396
3960	2.25311e-05	0.799866	3975.77	397
3970	2.09747e-05	0.799866	3985.77	398
3980	2.36023e-05	0.799561	3995.77	399
3990	2.25891e-05	0.799561	4005.77	400
4000	2.25433e-05	0.799866	4015.77	401
4010	2.21649e-05	0.799866	4025.77	402
4020	2.26379e-05	0.799866	4035.77	403
4030	2.27539e-05	0.799866	4045.77	404
4040	2.31934e-05	0.799866	4055.77	405
4050	2.21649e-05	0.799561	4065.77	406
4060	2.22687e-05	0.799866	4075.77	407
4070	2.2052e-05	0.799255	4085.77	408
4080	2.23145e-05	0.799866	4095.77	409
4090	2.24243e-05	0.800171	4105.77	410
4100	2.18384e-05	0.800171	4115.77	411
4110	2.15027e-05	0.800476	4125.77	412
4120	2.1286e-05	0.799866	4135.77	413
4130	2.12677e-05	0.799561	4145.77	414
4140	2.08923e-05	0.799255	4155.77	415
4150	2.11578e-05	0.799255	4165.77	416
4160	2.17743e-05	0.799866	4175.77	417
4170	2.10754e-05	0.799255	4185.77	418
4180	2.10999e-05	0.799866	4195.77	419
4190	2.10266e-05	0.799561	4205.77	420
4200	2.16095e-05	0.799561	4215.77	421
4210	2.05902e-05	0.799255	4225.77	422
4220	2.06482e-05	0.799866	4235.77	423
4230	2.17438e-05	0.799255	4245.77	424
4240	2.12677e-05	0.799561	4255.77	425
4250	2.14661e-05	0.799866	4265.77	426
4260	1.99066e-05	0.799561	4275.77	427
4270	2.12341e-05	0.799255	4285.77	428
4280	2.02179e-05	0.799561	4295.77	429
4290	2.05688e-05	0.799866	4305.77	430
4300	2.02576e-05	0.799561	4315.77	431
4310	2.04041e-05	0.799866	4325.77	432
4320	2.07855e-05	0.799561	4335.77	433
4330	2.03918e-05	0.799866	4345.77	434
4340	2.00775e-05	0.799255	4355.77	435
4350	2.052e-05	0.799255	4365.77	436
4360	2.05322e-05	0.799866	4375.77	437
4370	1.94641e-05	0.799866	4385.77	438
4380	1.96014e-05	0.799866	4395.77	439
4390	1.93756e-05	0.799866	4405.77	440
4400	2.03888e-05	0.799561	4415.77	441
4410	2.02362e-05	0.799255	4425.77	442
4420	1.96747e-05	0.799561	4435.77	443
4430	1.91864e-05	0.799561	4445.77	444
4440	1.96564e-05	0.800476	4455.77	445
4450	2.02454e-05	0.799561	4465.77	446
4460	2.00806e-05	0.799561	4475.77	447
4470	1.91833e-05	0.799561	4485.77	448
4480	1.9632e-05	0.799866	4495.77	449
4490	2.01752e-05	0.799561	4505.77	450
4500	1.89575e-05	0.799255	4515.77	451
4510	1.87622e-05	0.799255	4525.77	452
4520	1.84418e-05	0.799866	4535.77	453
4530	1.96777e-05	0.800171	4545.77	454
4540	1.91895e-05	0.799866	4555.77	455
4550	1.91071e-05	0.799255	4565.77	456
4560	1.84509e-05	0.799866	4575.77	457
4570	1.84296e-05	0.799561	4585.77	458
4580	1.82556e-05	0.799561	4595.77	459
4590	1.87134e-05	0.799255	4605.77	460
4600	1.86523e-05	0.799561	4615.77	461
4610	1.92047e-05	0.799866	4625.77	462
4620	1.80176e-05	0.800171	4635.77	463
4630	1.796875E-05	0.799866	4645.77	464
4640	1.81915e-05	0.799561	4655.77	465
4650	1.83838e-05	0.799866	4665.77	466
4660	1.72058e-05	0.799561	4675.77	467
4670	1.8573e-05	0.800476	4685.77	468
4680	1.78467e-05	0.79895	4695.77	469
4690	1.87225e-05	0.799561	4705.77	470
4700	1.70837e-05	0.799561	4715.77	471
4710	1.71356e-05	0.799255	4725.77	472
4720	1.80664e-05	0.799866	4735.77	473
4730	1.77307e-05	0.799866	4745.77	474
4740	1.75598e-05	0.799561	4755.77	475
4750	1.7749e-05	0.799561	4765.77	476
4760	1.74957e-05	0.799561	4775.77	477
4770	1.74988e-05	0.799561	4785.77	478
4780	1.70959e-05	0.79895	4795.77	479
4790	1.61652e-05	0.799561	4805.77	480
4800	1.76849e-05	0.799866	4815.77	481
4810	1.7218e-05	0.799561	4825.77	482
4820	1.7514e-05	0.799866	4835.77	483
4830	1.72852e-05	0.799866	4845.77	484
4840	1.72852e-05	0.800171	4855.77	485
4850	1.75568e-05	0.79895	4865.77	486
4860	1.67328e-05	0.800171	4875.77	487
4870	1.62781e-05	0.799561	4885.77	488
4880	1.71844e-05	0.799866	4895.77	489
4890	1.7572e-05	0.799866	4905.77	490
4900	1.72394e-05	0.79895	4915.77	491
4910	1.64398e-05	0.799561	4925.77	492
4920	1.69342e-05	0.799255	4935.77	493
4930	1.72424e-05	0.799866	4945.77	494
4940	1.69525e-05	0.799561	4955.77	495
4950	1.60767e-05	0.800171	4965.77	496
4960	1.61255e-05	0.799561	4975.77	497
4970	1.67969e-05	0.799866	4985.77	498
4980	1.64459e-05	0.79895	4995.77	499
4990	1.651e-05	0.799866	5005.77	500
5000	1.6687e-05	0.799561	5015.77	501
5010	1.6098e-05	0.800171	5025.77	502
5020	1.56403e-05	0.799866	5035.77	503
5030	1.67297e-05	0.799866	5045.77	504
5040	1.61469e-05	0.799255	5055.77	505
5050	1.59882e-05	0.799561	5065.77	506
5060	1.60828e-05	0.799561	5075.77	507
5070	1.62018e-05	0.799561	5085.77	508
5080	1.5976e-05	0.799561	5095.77	509
5090	1.49139e-05	0.799255	5105.77	510
5100	1.5448e-05	0.799561	5115.77	511
5110	1.55243e-05	0.799866	5125.77	512
5120	1.53992e-05	0.800171	5135.77	513
5130	1.55701e-05	0.799866	5145.77	514
5140	1.5152e-05	0.799561	5155.77	515
5150	1.57501e-05	0.799255	5165.77	516
5160	1.55334e-05	0.799866	5175.77	517
5170	1.52374e-05	0.799866	5185.77	518
5180	1.49841e-05	0.799866	5195.77	519
5190	1.5274e-05	0.799255	5205.77	520
5200	1.54663e-05	0.800171	5215.77	521
5210	1.49872e-05	0.800171	5225.77	522
5220	1.484375E-05	0.799866	5235.77	523
5230	1.5332e-05	0.799561	5245.77	524
5240	1.53656e-05	0.799561	5255.77	525
5250	1.51337e-05	0.799561	5265.77	526
5260	1.50482e-05	0.79895	5275.77	527
5270	1.53748e-05	0.799561	5285.77	528
5280	1.53351e-05	0.799561	5295.77	529
5290	1.45813e-05	0.799561	5305.77	530
5300	1.50604e-05	0.799561	5315.77	531
5310	1.47034e-05	0.799255	5325.77	532
5320	1.51611e-05	0.799561	5335.77	533
5330	1.42242e-05	0.799255	5345.77	534
5340	1.48315e-05	0.799561	5355.77	535
5350	1.47095e-05	0.799255	5365.77	536
5360	1.48773e-05	0.799561	5375.77	537
5370	1.39496e-05	0.799561	5385.77	538
5380	1.49048e-05	0.800171	5395.77	539
5390	1.4566e-05	0.799561	5405.77	540
5400	1.51001e-05	0.799561	5415.77	541
5410	1.44012e-05	0.799866	5425.77	542
5420	1.44989e-05	0.799866	5435.77	543
5430	1.46759e-05	0.799561	5445.77	544
5440	1.36383e-05	0.799561	5455.77	545
5450	1.43188e-05	0.799255	5465.77	546
5460	1.43402e-05	0.799561	5475.77	547
5470	1.42029e-05	0.799866	5485.77	548
5480	1.45264e-05	0.800171	5495.77	549
5490	1.41449e-05	0.799561	5505.77	550
5500	1.39832e-05	0.799866	5515.77	551
5510	1.36719e-05	0.799561	5525.77	552
5520	1.45416e-05	0.799255	5535.77	553
5530	1.34857e-05	0.799561	5545.77	554
5540	1.45142e-05	0.799866	5555.77	555
5550	1.37909e-05	0.799561	5565.77	556
5560	1.41266e-05	0.79895	5575.77	557
5570	1.34949e-05	0.799561	5585.77	558
5580	1.38e-05	0.799561	5595.77	559
5590	1.29974e-05	0.799561	5605.77	560
5600	1.41022e-05	0.799866	5615.77	561
5610	1.38397e-05	0.799866	5625.77	562
5620	1.3678e-05	0.799255	5635.77	563
5630	1.44287e-05	0.799561	5645.77	564
5640	1.34552e-05	0.799866	5655.77	565
5650	1.36414e-05	0.799866	5665.77	566
5660	1.33392e-05	0.799561	5675.77	567
5670	1.30585e-05	0.799866	5685.77	568
5680	1.35773e-05	0.800171	5695.77	569
5690	1.35834e-05	0.799866	5705.77	570
5700	1.34186e-05	0.799866	5715.77	571
5710	1.39862e-05	0.799561	5725.77	572
5720	1.33026e-05	0.799561	5735.77	573
5730	1.34735e-05	0.799866	5745.77	574
5740	1.33545e-05	0.799561	5755.77	575
5750	1.35834e-05	0.799561	5765.77	576
5760	1.32385e-05	0.799866	5775.77	577
5770	1.34399e-05	0.79895	5785.77	578
5780	1.32996e-05	0.799561	5795.77	579
5790	1.29242e-05	0.799866	5805.77	580
5800	1.30188e-05	0.800171	5815.77	581
5810	1.29181e-05	0.799866	5825.77	582
5820	1.31989e-05	0.799255	5835.77	583
5830	1.34399e-05	0.800171	5845.77	584
5840	1.26343e-05	0.799866	5855.77	585
5850	1.26587e-05	0.799866	5865.77	586
5860	1.23993e-05	0.799561	5875.77	587
5870	1.2851e-05	0.799866	5885.77	588
5880	1.2619e-05	0.800171	5895.77	589
5890	1.30371e-05	0.799866	5905.77	590
5900	1.29517e-05	0.799561	5915.77	591
5910	1.328125E-05	0.799866	5925.77	592
5920	1.2262e-05	0.799255	5935.77	593
5930	1.24908e-05	0.800171	5945.77	594
5940	1.27014e-05	0.800171	5955.77	595
5950	1.20422e-05	0.799561	5965.77	596
5960	1.28937e-05	0.799866	5975.77	597
5970	1.24695e-05	0.799866	5985.77	598
5980	1.20148e-05	0.799866	5995.77	599
5990	1.2384e-05	0.799866	6005.77	600
6000	1.17371e-05	0.799255	6015.77	601
6010	1.20911e-05	0.799561	6025.77	602
6020	1.19446e-05	0.799561	6035.77	603
6030	1.23718e-05	0.799561	6045.77	604
6040	1.23901e-05	0.799866	6055.77	605
6050	1.25641e-05	0.799866	6065.77	606
6060	1.26129e-05	0.799866	6075.77	607
6070	1.21613e-05	0.799866	6085.77	608
6080	1.22528e-05	0.799255	6095.77	609
6090	1.37268e-05	0.799561	6105.77	610
6100	1.70471e-05	0.799866	6115.77	611
6110	1.92047e-05	0.799866	6125.77	612
6120	2.32117e-05	0.799866	6135.77	613
6130	2.45209e-05	0.799866	6145.77	614
6140	2.48627e-05	0.799561	6155.77	615
6150	2.54578e-05	0.800171	6165.77	616
6160	2.56165e-05	0.799866	6175.77	617
6170	2.41821e-05	0.799561	6185.77	618
6180	2.3996e-05	0.799561	6195.77	619
6190	2.48383e-05	0.799561	6205.77	620
6200	2.46979e-05	0.799866	6215.77	621
6210	2.46033e-05	0.800171	6225.77	622
6220	2.53418e-05	0.799255	6235.77	623
6230	2.49573e-05	0.799866	6245.77	624
6240	2.4646e-05	0.799561	6255.77	625
6250	2.44843e-05	0.799561	6265.77	626
6260	2.49542e-05	0.799561	6275.77	627
6270	2.34039e-05	0.799561	6285.77	628
6280	2.3761e-05	0.799561	6295.77	629
6290	2.3996e-05	0.799866	6305.77	630
6300	2.35535e-05	0.799866	6315.77	631
6310	2.24518e-05	0.799561	6325.77	632