File: ELECTROCHEM_DATA/06.08.2021 ПК220 BF4 1e-4 M TBABF4 0,1 M MeCN 1 mm anode +0.8 V/CA PK220 BF4 anode -0,8 V
Time (s);WE(1).Potential (V);WE(1).Current (A);Corrected time (s);Index
16.1772;0.800171;0.000447937;0;1
26.1772;0.79895;0.000439484;10;2
36.1772;0.799561;0.000438812;20;3
46.1772;0.799866;0.000412109;30;4
56.1772;0.799866;0.000422821;40;5
66.1772;0.799866;0.00040921;50;6
76.1772;0.800476;0.000398041;60;7
86.1772;0.800171;0.000396271;70;8
96.1772;0.800171;0.000394226;80;9
106.177;0.800171;0.000379547;90;10
116.177;0.800171;0.00038504;100;11
126.177;0.799866;0.000372437;110;12
136.177;0.799866;0.000364807;120;13
146.177;0.799255;0.00037439;130;14
156.177;0.799561;0.000358826;140;15
166.177;0.799866;0.000355164;150;16
176.177;0.799866;0.000364319;160;17
186.177;0.799561;0.000346497;170;18
196.177;0.799255;0.000346985;180;19
206.177;0.799561;0.00033725;190;20
216.177;0.799255;0.000331512;200;21
226.177;0.799866;0.000329498;210;22
236.177;0.799561;0.000327667;220;23
246.177;0.799866;0.00032077;230;24
256.177;0.799866;0.000315887;240;25
266.177;0.799561;0.000312531;250;26
276.177;0.799866;0.000310425;260;27
286.177;0.799866;0.00030484;270;28
296.177;0.799866;0.000308197;280;29
306.177;0.800171;0.000306091;290;30
316.177;0.799866;0.000302856;300;31
326.177;0.799255;0.000294891;310;32
336.177;0.799866;0.000290253;320;33
346.177;0.800171;0.000289703;330;34
356.177;0.799866;0.000285553;340;35
366.177;0.799866;0.000288605;350;36
376.177;0.799866;0.000283661;360;37
386.177;0.799866;0.000283081;370;38
396.177;0.799255;0.000275146;380;39
406.177;0.800476;0.000269501;390;40
416.177;0.800476;0.0002612;400;41
426.177;0.799866;0.000258087;410;42
436.177;0.800171;0.000261292;420;43
446.177;0.799255;0.000263275;430;44
456.177;0.799255;0.000253601;440;45
466.177;0.799561;0.00026001;450;46
476.177;0.800171;0.000257507;460;47
486.177;0.800171;0.000244659;470;48
496.177;0.799866;0.000248657;480;49
506.177;0.799866;0.000246216;490;50
516.177;0.799866;0.000246857;500;51
526.177;0.799561;0.000237762;510;52
536.177;0.799866;0.000237274;520;53
546.177;0.799255;0.00023233;530;54
556.177;0.800171;0.000232941;540;55
566.177;0.800171;0.000232117;550;56
576.177;0.799866;0.000228851;560;57
586.177;0.799561;0.000227966;570;58
596.177;0.800171;0.000225647;580;59
606.177;0.799255;0.000219574;590;60
616.177;0.799866;0.000214905;600;61
626.177;0.799561;0.000213043;610;62
636.177;0.799561;0.000213715;620;63
646.177;0.800171;0.000208344;630;64
656.177;0.799561;0.000209564;640;65
666.177;0.799255;0.000217468;650;66
676.177;0.800171;0.000209412;660;67
686.177;0.799866;0.000211395;670;68
696.177;0.800476;0.000207581;680;69
706.177;0.799255;0.000204559;690;70
716.177;0.799866;0.000197083;700;71
726.177;0.800476;0.000200134;710;72
736.177;0.799866;0.000192566;720;73
746.177;0.800171;0.00019223;730;74
756.177;0.800171;0.000192352;740;75
766.177;0.799561;0.000190826;750;76
776.177;0.799866;0.000191956;760;77
786.177;0.799866;0.000190796;770;78
796.177;0.799866;0.000182495;780;79
806.177;0.799866;0.000185425;790;80
816.177;0.799561;0.000182922;800;81
826.177;0.799255;0.000178101;810;82
836.177;0.799561;0.000175476;820;83
846.177;0.800171;0.000176697;830;84
856.177;0.799561;0.000176758;840;85
866.177;0.800171;0.00018869;850;86
876.177;0.799866;0.000180634;860;87
886.177;0.799561;0.000174835;870;88
896.177;0.799866;0.000173676;880;89
906.177;0.799866;0.000172058;890;90
916.177;0.800171;0.000172455;900;91
926.177;0.800171;0.00016983;910;92
936.177;0.799866;0.00016629;920;93
946.177;0.799561;0.000167236;930;94
956.177;0.800171;0.000170105;940;95
966.177;0.800171;0.000163025;950;96
976.177;0.799561;0.000163025;960;97
986.177;0.799866;0.000161469;970;98
996.177;0.799866;0.000159485;980;99
1006.18;0.799866;0.000161682;990;100
1016.18;0.799255;0.000160797;1000;101
1026.18;0.799866;0.000157379;1010;102
1036.18;0.799561;0.000155396;1020;103
1046.18;0.799255;0.000155365;1030;104
1056.18;0.799561;0.000151978;1040;105
1066.18;0.800171;0.00015506;1050;106
1076.18;0.799866;0.000153656;1060;107
1086.18;0.800171;0.000153809;1070;108
1096.18;0.799561;0.000151123;1080;109
1106.18;0.800171;0.0001484375;1090;110
1116.18;0.799866;0.000148132;1100;111
1126.18;0.800171;0.000142609;1110;112
1136.18;0.799561;0.000145355;1120;113
1146.18;0.799866;0.000144592;1130;114
1156.18;0.799866;0.000143951;1140;115
1166.18;0.800476;0.000141418;1150;116
1176.18;0.799866;0.000137817;1160;117
1186.18;0.799866;0.000139496;1170;118
1196.18;0.799866;0.000136292;1180;119
1206.18;0.799866;0.000138153;1190;120
1216.18;0.799866;0.000137817;1200;121
1226.18;0.800476;0.000135162;1210;122
1236.18;0.799866;0.000134705;1220;123
1246.18;0.800476;0.000135437;1230;124
1256.18;0.799255;0.000131226;1240;125
1266.18;0.799255;0.000132416;1250;126
1276.18;0.799255;0.000130615;1260;127
1286.18;0.799255;0.000129242;1270;128
1296.18;0.800476;0.00012619;1280;129
1306.18;0.800171;0.000126648;1290;130
1316.18;0.799255;0.000126099;1300;131
1326.18;0.799866;0.000124146;1310;132
1336.18;0.800171;0.000125214;1320;133
1346.18;0.799866;0.000125;1330;134
1356.18;0.800171;0.000121033;1340;135
1366.18;0.799866;0.000120636;1350;136
1376.18;0.799561;0.000119293;1360;137
1386.18;0.800171;0.000119171;1370;138
1396.18;0.800171;0.000118378;1380;139
1406.18;0.799561;0.000116974;1390;140
1416.18;0.799866;0.000115814;1400;141
1426.18;0.800476;0.000116425;1410;142
1436.18;0.800171;0.000115845;1420;143
1446.18;0.799255;0.000114868;1430;144
1456.18;0.800171;0.0001138;1440;145
1466.18;0.799866;0.000113251;1450;146
1476.18;0.799255;0.000110992;1460;147
1486.18;0.800171;0.000110046;1470;148
1496.18;0.799866;0.000111603;1480;149
1506.18;0.800171;0.000108948;1490;150
1516.18;0.799866;0.000108673;1500;151
1526.18;0.799866;0.000106293;1510;152
1536.18;0.800171;0.000107086;1520;153
1546.18;0.799866;0.000107605;1530;154
1556.18;0.799561;0.000104279;1540;155
1566.18;0.799866;0.000104431;1550;156
1576.18;0.800476;0.000103821;1560;157
1586.18;0.800781;0.000100128;1570;158
1596.18;0.800476;0.000102325;1580;159
1606.18;0.800476;0.000101257;1590;160
1616.18;0.800171;0.000100647;1600;161
1626.18;0.799866;9.99756e-05;1610;162
1636.18;0.799866;9.8999e-05;1620;163
1646.18;0.79895;9.85107e-05;1630;164
1656.18;0.799255;9.89685e-05;1640;165
1666.18;0.800476;9.79309e-05;1650;166
1676.18;0.799561;9.53979e-05;1660;167
1686.18;0.800171;9.38416e-05;1670;168
1696.18;0.799866;9.40857e-05;1680;169
1706.18;0.799561;9.33838e-05;1690;170
1716.18;0.799866;9.32617e-05;1700;171
1726.18;0.800171;9.11255e-05;1710;172
1736.18;0.801086;9.30481e-05;1720;173
1746.18;0.800476;9.25903e-05;1730;174
1756.18;0.799866;9.14917e-05;1740;175
1766.18;0.79895;9.10034e-05;1750;176
1776.18;0.799255;8.86536e-05;1760;177
1786.18;0.799255;8.86536e-05;1770;178
1796.18;0.799866;8.89587e-05;1780;179
1806.18;0.800781;8.8623e-05;1790;180
1816.18;0.799866;8.70972e-05;1800;181
1826.18;0.799866;8.86536e-05;1810;182
1836.18;0.79895;8.83179e-05;1820;183
1846.18;0.79895;8.5968e-05;1830;184
1856.18;0.800171;8.64563e-05;1840;185
1866.18;0.800171;8.58154e-05;1850;186
1876.18;0.800476;8.36182e-05;1860;187
1886.18;0.801392;8.27637e-05;1870;188
1896.18;0.801086;8.23975e-05;1880;189
1906.18;0.800476;8.1604e-05;1890;190
1916.18;0.798645;8.23059e-05;1900;191
1926.18;0.79895;8.18176e-05;1910;192
1936.18;0.799866;8.30994e-05;1920;193
1946.18;0.801086;8.04443e-05;1930;194
1956.18;0.800171;8.00476e-05;1940;195
1966.18;0.799255;8.06274e-05;1950;196
1976.18;0.798645;7.97729e-05;1960;197
1986.18;0.798645;7.93457e-05;1970;198
1996.18;0.799255;8.05054e-05;1980;199
2006.18;0.800476;7.88574e-05;1990;200
2016.18;0.800781;7.85217e-05;2000;201
2026.18;0.800476;7.93152e-05;2010;202
2036.18;0.799866;7.76978e-05;2020;203
2046.18;0.798645;7.83081e-05;2030;204
2056.18;0.799255;7.69958e-05;2040;205
2066.18;0.799561;7.58362e-05;2050;206
2076.18;0.800781;7.48901e-05;2060;207
2086.18;0.800171;7.64771e-05;2070;208
2096.18;0.800476;7.34558e-05;2080;209
2106.18;0.799866;7.45239e-05;2090;210
2116.18;0.799866;7.50122e-05;2100;211
2126.18;0.799255;7.45544e-05;2110;212
2136.18;0.799561;7.27234e-05;2120;213
2146.18;0.79895;7.32727e-05;2130;214
2156.18;0.799255;7.15027e-05;2140;215
2166.18;0.799561;7.22046e-05;2150;216
2176.18;0.798645;7.29065e-05;2160;217
2186.18;0.798645;6.93665e-05;2170;218
2196.18;0.799561;7.22351e-05;2180;219
2206.18;0.799561;7.13196e-05;2190;220
2216.18;0.799866;7.10449e-05;2200;221
2226.18;0.79895;7.04041e-05;2210;222
2236.18;0.79895;7.0282e-05;2220;223
2246.18;0.799866;7.07092e-05;2230;224
2256.18;0.799866;6.92139e-05;2240;225
2266.18;0.800781;6.8634e-05;2250;226
2276.18;0.800781;6.93359e-05;2260;227
2286.18;0.800476;6.90918e-05;2270;228
2296.18;0.799866;6.77795e-05;2280;229
2306.18;0.798645;6.79626e-05;2290;230
2316.18;0.798645;6.89697e-05;2300;231
2326.18;0.799255;6.82678e-05;2310;232
2336.18;0.799255;6.75964e-05;2320;233
2346.18;0.799866;6.71997e-05;2330;234
2356.18;0.799866;6.640625E-05;2340;235
2366.18;0.799255;6.6803e-05;2350;236
2376.18;0.79895;6.58569e-05;2360;237
2386.18;0.798645;6.63757e-05;2370;238
2396.18;0.800171;6.55823e-05;2380;239
2406.18;0.800171;6.44836e-05;2390;240
2416.18;0.800476;6.53381e-05;2400;241
2426.18;0.799561;6.61011e-05;2410;242
2436.18;0.79895;6.56128e-05;2420;243
2446.18;0.800171;6.37207e-05;2430;244
2456.18;0.800781;6.38733e-05;2440;245
2466.18;0.800476;6.2439e-05;2450;246
2476.18;0.800171;6.28357e-05;2460;247
2486.18;0.800171;6.34766e-05;2470;248
2496.18;0.800171;6.58569e-05;2480;249
2506.18;0.799866;6.21338e-05;2490;250
2516.18;0.800476;6.12183e-05;2500;251
2526.18;0.800476;6.34766e-05;2510;252
2536.18;0.800781;6.26831e-05;2520;253
2546.18;0.801086;6.28357e-05;2530;254
2556.18;0.801086;6.07605e-05;2540;255
2566.18;0.800476;6.03638e-05;2550;256
2576.18;0.79895;5.96619e-05;2560;257
2586.18;0.79895;6.19812e-05;2570;258
2596.18;0.799255;6.15234e-05;2580;259
2606.18;0.800476;5.95398e-05;2590;260
2616.18;0.800476;6.03638e-05;2600;261
2626.18;0.800171;6.01807e-05;2610;262
2636.18;0.799866;6.1615e-05;2620;263
2646.18;0.799866;5.93872e-05;2630;264
2656.18;0.799255;5.98145e-05;2640;265
2666.18;0.799561;5.8075e-05;2650;266
2676.18;0.799255;5.88379e-05;2660;267
2686.18;0.799255;5.95093e-05;2670;268
2696.18;0.79895;5.92651e-05;2680;269
2706.18;0.79895;5.87463e-05;2690;270
2716.18;0.79895;5.85327e-05;2700;271
2726.18;0.79895;5.85632e-05;2710;272
2736.18;0.799561;5.77698e-05;2720;273
2746.18;0.799255;5.89905e-05;2730;274
2756.18;0.799561;5.67932e-05;2740;275
2766.18;0.79895;5.70679e-05;2750;276
2776.18;0.799561;5.8136e-05;2760;277
2786.18;0.799866;5.60913e-05;2770;278
2796.18;0.799866;5.72205e-05;2780;279
2806.18;0.800476;5.75256e-05;2790;280
2816.18;0.799561;5.63049e-05;2800;281
2826.18;0.800171;5.68542e-05;2810;282
2836.18;0.800476;5.56946e-05;2820;283
2846.18;0.799255;5.83801e-05;2830;284
2856.18;0.799255;5.45349e-05;2840;285
2866.18;0.799866;5.3772e-05;2850;286
2876.18;0.79895;5.41382e-05;2860;287
2886.18;0.799255;5.51453e-05;2870;288
2896.18;0.798645;5.84717e-05;2880;289
2906.18;0.800171;5.52368e-05;2890;290
2916.18;0.800476;5.43518e-05;2900;291
2926.18;0.800476;5.70984e-05;2910;292
2936.18;0.800171;5.31921e-05;2920;293
2946.18;0.800476;5.3894e-05;2930;294
2956.18;0.800476;5.41687e-05;2940;295
2966.18;0.800476;5.33447e-05;2950;296
2976.18;0.799866;5.43213e-05;2960;297
2986.18;0.800476;5.45654e-05;2970;298
2996.18;0.800476;5.31311e-05;2980;299
3006.18;0.800476;5.35583e-05;2990;300
3016.18;0.800476;5.22461e-05;3000;301
3026.18;0.800476;5.13611e-05;3010;302
3036.18;0.799561;5.18799e-05;3020;303
3046.18;0.799561;5.12085e-05;3030;304
3056.18;0.799255;5.20935e-05;3040;305
3066.18;0.799255;5.21851e-05;3050;306
3076.18;0.800171;5.09338e-05;3060;307
3086.18;0.800476;5.02014e-05;3070;308
3096.18;0.800476;5.13611e-05;3080;309
3106.18;0.799561;5.02319e-05;3090;310
3116.18;0.799561;5.15442e-05;3100;311
3126.18;0.799866;5.19409e-05;3110;312
3136.18;0.800476;5.05981e-05;3120;313
3146.18;0.799866;5.078125E-05;3130;314
3156.18;0.800476;4.98352e-05;3140;315
3166.18;0.800171;5.00488e-05;3150;316
3176.18;0.799561;5.13e-05;3160;317
3186.18;0.799561;5.00183e-05;3170;318
3196.18;0.799255;4.96826e-05;3180;319
3206.18;0.800171;4.98962e-05;3190;320
3216.18;0.799866;4.98047e-05;3200;321
3226.18;0.800476;4.94385e-05;3210;322
3236.18;0.800476;5.01404e-05;3220;323
3246.18;0.800171;5.00183e-05;3230;324
3256.18;0.800171;4.87366e-05;3240;325
3266.18;0.799561;4.93164e-05;3250;326
3276.18;0.799255;4.953e-05;3260;327
3286.18;0.79895;4.87976e-05;3270;328
3296.18;0.799561;4.95911e-05;3280;329
3306.18;0.800171;4.93164e-05;3290;330
3316.18;0.800476;4.81873e-05;3300;331
3326.18;0.799866;4.93774e-05;3310;332
3336.18;0.800476;4.76379e-05;3320;333
3346.18;0.800476;4.82788e-05;3330;334
3356.18;0.799866;4.88586e-05;3340;335
3366.18;0.800171;4.81567e-05;3350;336
3376.18;0.800171;4.65393e-05;3360;337
3386.18;0.800476;4.72717e-05;3370;338
3396.18;0.800476;4.6936e-05;3380;339
3406.18;0.799561;4.77295e-05;3390;340
3416.18;0.799561;4.63257e-05;3400;341
3426.18;0.799255;4.74548e-05;3410;342
3436.18;0.799255;4.74854e-05;3420;343
3446.18;0.799866;4.73633e-05;3430;344
3456.18;0.800476;4.57153e-05;3440;345
3466.18;0.800476;4.73022e-05;3450;346
3476.18;0.800171;5.07507e-05;3460;347
3486.18;0.79895;4.79431e-05;3470;348
3496.18;0.799255;4.67834e-05;3480;349
3506.18;0.799866;4.53796e-05;3490;350
3516.18;0.799561;4.66919e-05;3500;351
3526.18;0.799866;4.64478e-05;3510;352
3536.18;0.799866;4.55627e-05;3520;353
3546.18;0.800476;4.52576e-05;3530;354
3556.18;0.800476;4.54102e-05;3540;355
3566.18;0.800781;4.52881e-05;3550;356
3576.18;0.800171;4.59595e-05;3560;357
3586.18;0.800476;4.5929e-05;3570;358
3596.18;0.799866;4.60205e-05;3580;359
3606.18;0.800171;4.61426e-05;3590;360
3616.18;0.79895;4.60815e-05;3600;361
3626.18;0.799255;4.55933e-05;3610;362
3636.18;0.799866;4.62952e-05;3620;363
3646.18;0.79895;4.53186e-05;3630;364
3656.18;0.799255;4.599e-05;3640;365
3666.18;0.799255;4.45251e-05;3650;366
3676.18;0.800476;4.49524e-05;3660;367
3686.18;0.800476;4.40979e-05;3670;368
3696.18;0.799561;4.48608e-05;3680;369
3706.18;0.799255;4.4342e-05;3690;370
3716.18;0.79895;4.38843e-05;3700;371
3726.18;0.800171;4.42505e-05;3710;372
3736.18;0.800171;4.40063e-05;3720;373
3746.18;0.800171;4.35181e-05;3730;374
3756.18;0.800171;4.4281e-05;3740;375
3766.18;0.799561;4.39758e-05;3750;376
3776.18;0.799255;4.33044e-05;3760;377
3786.18;0.799866;4.37012e-05;3770;378
3796.18;0.799866;4.39453e-05;3780;379
3806.18;0.800171;4.32129e-05;3790;380
3816.18;0.800781;4.32739e-05;3800;381
3826.18;0.800476;4.30298e-05;3810;382
3836.18;0.799866;4.30908e-05;3820;383
3846.18;0.799866;4.26025e-05;3830;384
3856.18;0.800476;4.27856e-05;3840;385
3866.18;0.799866;4.27551e-05;3850;386
3876.18;0.799866;4.27551e-05;3860;387
3886.18;0.799255;4.3335e-05;3870;388
3896.18;0.800171;4.26025e-05;3880;389
3906.18;0.800476;4.22668e-05;3890;390
3916.18;0.800171;4.25415e-05;3900;391
3926.18;0.799866;4.2572e-05;3910;392
3936.18;0.799866;4.20837e-05;3920;393
3946.18;0.799255;4.18396e-05;3930;394
3956.18;0.799866;4.20227e-05;3940;395
3966.18;0.79895;4.15039e-05;3950;396
3976.18;0.799255;4.1626e-05;3960;397
3986.18;0.800171;4.12292e-05;3970;398
3996.18;0.800476;4.16565e-05;3980;399
4006.18;0.800476;4.18396e-05;3990;400
4016.18;0.799866;4.27856e-05;4000;401
4026.18;0.798645;4.16565e-05;4010;402
4036.18;0.800171;4.14124e-05;4020;403
4046.18;0.800171;4.15955e-05;4030;404
4056.18;0.800171;4.11987e-05;4040;405
4066.18;0.799866;4.12903e-05;4050;406
4076.18;0.799255;4.06799e-05;4060;407
4086.18;0.799561;4.12903e-05;4070;408
4096.18;0.799866;4.01001e-05;4080;409
4106.18;0.799561;4.02527e-05;4090;410
4116.18;0.799866;4.04968e-05;4100;411
4126.18;0.799866;4.01611e-05;4110;412
4136.18;0.799255;4.02527e-05;4120;413
4146.18;0.799561;4.04358e-05;4130;414
4156.18;0.799561;3.9856e-05;4140;415
4166.18;0.799866;4.07104e-05;4150;416
4176.18;0.800171;3.97644e-05;4160;417
4186.18;0.800171;3.9917e-05;4170;418
4196.18;0.799561;4.01611e-05;4180;419
4206.18;0.800476;4.06799e-05;4190;420
4216.18;0.800781;4.05884e-05;4200;421
4226.18;0.799866;4.04053e-05;4210;422
4236.18;0.799866;3.92456e-05;4220;423
4246.18;0.799561;4.04358e-05;4230;424
4256.18;0.800476;3.93066e-05;4240;425
4266.18;0.799255;4.02832e-05;4250;426
4276.18;0.799866;3.91235e-05;4260;427
4286.18;0.799866;4.02222e-05;4270;428
4296.18;0.800171;3.93982e-05;4280;429
4306.18;0.799561;3.90015e-05;4290;430
4316.18;0.799866;3.95203e-05;4300;431
4326.18;0.799866;3.93372e-05;4310;432